PE IR                   SPECTRUM    ASCII       PEDS        1.60        
  -1
~SP.SP
18/04/18
12:46:52.00
18/04/18
12:46:52.00
Claudia

650.000000
16









SPECTRUM 100,CPU32 MAIN 00.02.8200 12-DECEMBER-2006 10:00:00
MIR TGS
MIR
OPTKBR
78890
0.200000

4.000000
STRONG
RATIO
SPECTRUM
MAGNITUDE
UNIVERSAL ATR
DOUBLE

COMBINED


0


#HDR
-1
-1
#GR
CM-1
%T
0.00002384185791015625
0.0
4000.000000
-1.000000
3351
8
97.771370
28.379649
#DATA
4000.000000	97.473233 
3999.000000	97.477212 
3998.000000	97.494034 
3997.000000	97.508355 
3996.000000	97.522122 
3995.000000	97.530596 
3994.000000	97.532762 
3993.000000	97.531215 
3992.000000	97.529259 
3991.000000	97.528249 
3990.000000	97.527586 
3989.000000	97.526162 
3988.000000	97.523427 
3987.000000	97.519474 
3986.000000	97.514516 
3985.000000	97.508561 
3984.000000	97.501852 
3983.000000	97.495652 
3982.000000	97.492260 
3981.000000	97.493741 
3980.000000	97.500339 
3979.000000	97.510245 
3978.000000	97.520663 
3977.000000	97.529007 
3976.000000	97.533798 
3975.000000	97.535204 
3974.000000	97.534839 
3973.000000	97.534583 
3972.000000	97.535334 
3971.000000	97.536940 
3970.000000	97.538770 
3969.000000	97.540362 
3968.000000	97.541998 
3967.000000	97.544699 
3966.000000	97.549335 
3965.000000	97.555331 
3964.000000	97.560623 
3963.000000	97.563731 
3962.000000	97.565788 
3961.000000	97.569416 
3960.000000	97.575405 
3959.000000	97.581590 
3958.000000	97.585075 
3957.000000	97.585301 
3956.000000	97.584691 
3955.000000	97.586157 
3954.000000	97.590468 
3953.000000	97.595466 
3952.000000	97.597760 
3951.000000	97.595313 
3950.000000	97.588669 
3949.000000	97.580866 
3948.000000	97.575808 
3947.000000	97.576254 
3946.000000	97.582496 
3945.000000	97.592010 
3944.000000	97.600526 
3943.000000	97.604556 
3942.000000	97.604109 
3941.000000	97.601979 
3940.000000	97.600433 
3939.000000	97.599843 
3938.000000	97.599667 
3937.000000	97.599572 
3936.000000	97.599480 
3935.000000	97.598778 
3934.000000	97.596934 
3933.000000	97.594370 
3932.000000	97.592715 
3931.000000	97.593181 
3930.000000	97.595421 
3929.000000	97.598810 
3928.000000	97.603078 
3927.000000	97.607333 
3926.000000	97.609714 
3925.000000	97.608556 
3924.000000	97.604092 
3923.000000	97.597768 
3922.000000	97.589936 
3921.000000	97.580535 
3920.000000	97.570943 
3919.000000	97.563936 
3918.000000	97.561038 
3917.000000	97.561140 
3916.000000	97.562635 
3915.000000	97.565423 
3914.000000	97.569955 
3913.000000	97.575734 
3912.000000	97.581643 
3911.000000	97.587637 
3910.000000	97.594107 
3909.000000	97.600645 
3908.000000	97.606526 
3907.000000	97.611039 
3906.000000	97.613166 
3905.000000	97.610409 
3904.000000	97.601407 
3903.000000	97.589981 
3902.000000	97.582518 
3901.000000	97.581779 
3900.000000	97.586165 
3899.000000	97.593645 
3898.000000	97.604586 
3897.000000	97.619166 
3896.000000	97.634549 
3895.000000	97.646964 
3894.000000	97.654007 
3893.000000	97.654362 
3892.000000	97.647261 
3891.000000	97.634368 
3890.000000	97.620533 
3889.000000	97.609951 
3888.000000	97.604606 
3887.000000	97.604255 
3886.000000	97.607273 
3885.000000	97.612100 
3884.000000	97.616918 
3883.000000	97.618956 
3882.000000	97.616756 
3881.000000	97.612979 
3880.000000	97.613532 
3879.000000	97.620109 
3878.000000	97.628438 
3877.000000	97.634510 
3876.000000	97.638817 
3875.000000	97.643772 
3874.000000	97.650231 
3873.000000	97.656670 
3872.000000	97.659972 
3871.000000	97.656672 
3870.000000	97.647631 
3869.000000	97.640937 
3868.000000	97.641814 
3867.000000	97.646274 
3866.000000	97.648440 
3865.000000	97.647994 
3864.000000	97.648884 
3863.000000	97.652267 
3862.000000	97.653729 
3861.000000	97.650764 
3860.000000	97.646013 
3859.000000	97.641811 
3858.000000	97.636219 
3857.000000	97.627133 
3856.000000	97.618204 
3855.000000	97.615986 
3854.000000	97.614749 
3853.000000	97.608672 
3852.000000	97.605155 
3851.000000	97.608648 
3850.000000	97.614789 
3849.000000	97.621041 
3848.000000	97.627328 
3847.000000	97.633721 
3846.000000	97.638695 
3845.000000	97.640556 
3844.000000	97.639999 
3843.000000	97.639681 
3842.000000	97.640605 
3841.000000	97.642130 
3840.000000	97.644223 
3839.000000	97.648416 
3838.000000	97.655704 
3837.000000	97.663545 
3836.000000	97.668022 
3835.000000	97.667665 
3834.000000	97.663382 
3833.000000	97.656995 
3832.000000	97.650400 
3831.000000	97.645360 
3830.000000	97.642641 
3829.000000	97.640973 
3828.000000	97.638628 
3827.000000	97.636553 
3826.000000	97.637473 
3825.000000	97.642220 
3824.000000	97.648502 
3823.000000	97.653145 
3822.000000	97.652938 
3821.000000	97.649167 
3820.000000	97.648957 
3819.000000	97.654252 
3818.000000	97.659235 
3817.000000	97.658802 
3816.000000	97.655611 
3815.000000	97.657646 
3814.000000	97.666950 
3813.000000	97.677475 
3812.000000	97.683306 
3811.000000	97.683715 
3810.000000	97.680772 
3809.000000	97.675421 
3808.000000	97.666424 
3807.000000	97.655022 
3806.000000	97.646006 
3805.000000	97.641932 
3804.000000	97.640857 
3803.000000	97.640678 
3802.000000	97.640963 
3801.000000	97.644149 
3800.000000	97.652000 
3799.000000	97.660319 
3798.000000	97.664126 
3797.000000	97.664400 
3796.000000	97.666364 
3795.000000	97.672726 
3794.000000	97.680756 
3793.000000	97.686623 
3792.000000	97.689800 
3791.000000	97.691901 
3790.000000	97.692829 
3789.000000	97.690640 
3788.000000	97.685361 
3787.000000	97.680853 
3786.000000	97.681838 
3785.000000	97.689097 
3784.000000	97.698093 
3783.000000	97.702147 
3782.000000	97.696939 
3781.000000	97.683363 
3780.000000	97.667521 
3779.000000	97.658087 
3778.000000	97.659705 
3777.000000	97.669446 
3776.000000	97.680650 
3775.000000	97.688693 
3774.000000	97.692392 
3773.000000	97.692356 
3772.000000	97.689844 
3771.000000	97.686787 
3770.000000	97.685462 
3769.000000	97.687162 
3768.000000	97.690784 
3767.000000	97.693660 
3766.000000	97.695057 
3765.000000	97.696394 
3764.000000	97.697860 
3763.000000	97.697147 
3762.000000	97.692157 
3761.000000	97.684068 
3760.000000	97.676083 
3759.000000	97.670159 
3758.000000	97.664340 
3757.000000	97.655290 
3756.000000	97.642867 
3755.000000	97.630185 
3754.000000	97.620068 
3753.000000	97.612500 
3752.000000	97.605324 
3751.000000	97.597824 
3750.000000	97.592962 
3749.000000	97.590837 
3748.000000	97.586610 
3747.000000	97.575804 
3746.000000	97.558411 
3745.000000	97.539357 
3744.000000	97.531546 
3743.000000	97.540933 
3742.000000	97.555028 
3741.000000	97.558865 
3740.000000	97.549519 
3739.000000	97.534977 
3738.000000	97.525540 
3737.000000	97.524542 
3736.000000	97.528529 
3735.000000	97.532814 
3734.000000	97.532428 
3733.000000	97.522971 
3732.000000	97.506590 
3731.000000	97.491489 
3730.000000	97.483590 
3729.000000	97.482286 
3728.000000	97.484526 
3727.000000	97.488530 
3726.000000	97.493620 
3725.000000	97.498775 
3724.000000	97.503741 
3723.000000	97.511004 
3722.000000	97.523972 
3721.000000	97.544222 
3720.000000	97.569872 
3719.000000	97.597542 
3718.000000	97.623941 
3717.000000	97.644352 
3716.000000	97.653276 
3715.000000	97.646047 
3714.000000	97.622145 
3713.000000	97.588332 
3712.000000	97.556304 
3711.000000	97.537633 
3710.000000	97.536067 
3709.000000	97.546707 
3708.000000	97.562411 
3707.000000	97.577248 
3706.000000	97.587900 
3705.000000	97.593753 
3704.000000	97.596349 
3703.000000	97.598129 
3702.000000	97.600548 
3701.000000	97.604372 
3700.000000	97.609593 
3699.000000	97.614743 
3698.000000	97.618268 
3697.000000	97.619390 
3696.000000	97.618311 
3695.000000	97.615909 
3694.000000	97.614335 
3693.000000	97.618317 
3692.000000	97.633032 
3691.000000	97.657821 
3690.000000	97.680713 
3689.000000	97.688733 
3688.000000	97.683644 
3687.000000	97.677456 
3686.000000	97.678478 
3685.000000	97.687207 
3684.000000	97.699120 
3683.000000	97.708957 
3682.000000	97.713449 
3681.000000	97.710951 
3680.000000	97.701659 
3679.000000	97.688797 
3678.000000	97.678893 
3677.000000	97.677615 
3676.000000	97.682708 
3675.000000	97.691450 
3674.000000	97.703997 
3673.000000	97.716983 
3672.000000	97.725704 
3671.000000	97.729814 
3670.000000	97.732301 
3669.000000	97.738563 
3668.000000	97.749898 
3667.000000	97.760855 
3666.000000	97.766582 
3665.000000	97.766650 
3664.000000	97.763364 
3663.000000	97.759227 
3662.000000	97.755337 
3661.000000	97.751533 
3660.000000	97.748426 
3659.000000	97.747750 
3658.000000	97.751038 
3657.000000	97.757300 
3656.000000	97.764340 
3655.000000	97.770229 
3654.000000	97.771370 
3653.000000	97.763853 
3652.000000	97.747210 
3651.000000	97.725646 
3650.000000	97.704257 
3649.000000	97.688049 
3648.000000	97.681535 
3647.000000	97.684804 
3646.000000	97.692838 
3645.000000	97.699366 
3644.000000	97.699861 
3643.000000	97.693331 
3642.000000	97.682687 
3641.000000	97.672386 
3640.000000	97.665847 
3639.000000	97.663492 
3638.000000	97.663192 
3637.000000	97.661260 
3636.000000	97.653905 
3635.000000	97.640110 
3634.000000	97.623119 
3633.000000	97.607933 
3632.000000	97.596610 
3631.000000	97.586465 
3630.000000	97.571946 
3629.000000	97.552004 
3628.000000	97.535964 
3627.000000	97.530379 
3626.000000	97.531921 
3625.000000	97.538012 
3624.000000	97.551220 
3623.000000	97.573446 
3622.000000	97.600827 
3621.000000	97.624101 
3620.000000	97.633957 
3619.000000	97.630278 
3618.000000	97.624354 
3617.000000	97.626965 
3616.000000	97.639293 
3615.000000	97.654673 
3614.000000	97.664164 
3613.000000	97.663200 
3612.000000	97.653713 
3611.000000	97.639269 
3610.000000	97.622272 
3609.000000	97.606515 
3608.000000	97.597258 
3607.000000	97.596492 
3606.000000	97.600088 
3605.000000	97.602379 
3604.000000	97.601659 
3603.000000	97.599687 
3602.000000	97.598820 
3601.000000	97.600663 
3600.000000	97.605778 
3599.000000	97.612661 
3598.000000	97.617752 
3597.000000	97.617267 
3596.000000	97.610834 
3595.000000	97.602112 
3594.000000	97.595540 
3593.000000	97.593368 
3592.000000	97.596062 
3591.000000	97.604522 
3590.000000	97.620439 
3589.000000	97.642445 
3588.000000	97.662777 
3587.000000	97.672960 
3586.000000	97.672169 
3585.000000	97.665641 
3584.000000	97.659101 
3583.000000	97.655233 
3582.000000	97.654529 
3581.000000	97.656218 
3580.000000	97.658986 
3579.000000	97.661345 
3578.000000	97.662711 
3577.000000	97.664341 
3576.000000	97.667683 
3575.000000	97.672381 
3574.000000	97.675901 
3573.000000	97.676271 
3572.000000	97.673931 
3571.000000	97.670605 
3570.000000	97.667252 
3569.000000	97.663776 
3568.000000	97.659987 
3567.000000	97.656712 
3566.000000	97.655547 
3565.000000	97.656939 
3564.000000	97.659691 
3563.000000	97.661607 
3562.000000	97.660064 
3561.000000	97.653991 
3560.000000	97.646374 
3559.000000	97.642998 
3558.000000	97.647668 
3557.000000	97.658967 
3556.000000	97.671705 
3555.000000	97.680913 
3554.000000	97.684711 
3553.000000	97.684297 
3552.000000	97.682636 
3551.000000	97.682112 
3550.000000	97.682872 
3549.000000	97.683212 
3548.000000	97.681295 
3547.000000	97.676429 
3546.000000	97.670322 
3545.000000	97.667085 
3544.000000	97.670524 
3543.000000	97.679980 
3542.000000	97.689083 
3541.000000	97.690755 
3540.000000	97.684118 
3539.000000	97.675727 
3538.000000	97.673513 
3537.000000	97.679501 
3536.000000	97.688753 
3535.000000	97.694253 
3534.000000	97.692677 
3533.000000	97.686131 
3532.000000	97.679630 
3531.000000	97.676735 
3530.000000	97.676619 
3529.000000	97.675395 
3528.000000	97.670489 
3527.000000	97.663076 
3526.000000	97.656404 
3525.000000	97.653097 
3524.000000	97.654207 
3523.000000	97.659400 
3522.000000	97.666834 
3521.000000	97.673161 
3520.000000	97.675014 
3519.000000	97.671010 
3518.000000	97.662988 
3517.000000	97.654761 
3516.000000	97.649518 
3515.000000	97.648313 
3514.000000	97.650580 
3513.000000	97.654953 
3512.000000	97.658737 
3511.000000	97.657851 
3510.000000	97.650201 
3509.000000	97.639800 
3508.000000	97.634987 
3507.000000	97.640580 
3506.000000	97.652861 
3505.000000	97.662661 
3504.000000	97.663009 
3503.000000	97.653718 
3502.000000	97.639770 
3501.000000	97.627021 
3500.000000	97.619160 
3499.000000	97.616425 
3498.000000	97.616172 
3497.000000	97.616178 
3496.000000	97.617687 
3495.000000	97.623637 
3494.000000	97.633610 
3493.000000	97.642542 
3492.000000	97.645716 
3491.000000	97.643410 
3490.000000	97.639527 
3489.000000	97.636700 
3488.000000	97.634286 
3487.000000	97.630776 
3486.000000	97.626303 
3485.000000	97.622242 
3484.000000	97.619797 
3483.000000	97.619830 
3482.000000	97.622937 
3481.000000	97.628086 
3480.000000	97.631480 
3479.000000	97.628437 
3478.000000	97.617357 
3477.000000	97.601498 
3476.000000	97.586341 
3475.000000	97.575662 
3474.000000	97.570088 
3473.000000	97.568185 
3472.000000	97.567756 
3471.000000	97.566901 
3470.000000	97.565486 
3469.000000	97.565611 
3468.000000	97.569248 
3467.000000	97.575250 
3466.000000	97.579986 
3465.000000	97.581163 
3464.000000	97.579911 
3463.000000	97.578898 
3462.000000	97.579431 
3461.000000	97.580866 
3460.000000	97.581839 
3459.000000	97.581502 
3458.000000	97.580196 
3457.000000	97.579046 
3456.000000	97.578865 
3455.000000	97.579335 
3454.000000	97.580255 
3453.000000	97.583040 
3452.000000	97.589320 
3451.000000	97.597644 
3450.000000	97.602893 
3449.000000	97.600769 
3448.000000	97.592784 
3447.000000	97.585961 
3446.000000	97.586604 
3445.000000	97.594626 
3444.000000	97.604292 
3443.000000	97.609703 
3442.000000	97.609435 
3441.000000	97.606340 
3440.000000	97.603658 
3439.000000	97.602079 
3438.000000	97.600371 
3437.000000	97.597593 
3436.000000	97.594321 
3435.000000	97.592348 
3434.000000	97.594137 
3433.000000	97.601445 
3432.000000	97.612788 
3431.000000	97.622752 
3430.000000	97.625694 
3429.000000	97.621142 
3428.000000	97.614405 
3427.000000	97.611100 
3426.000000	97.611986 
3425.000000	97.613828 
3424.000000	97.614088 
3423.000000	97.613293 
3422.000000	97.613124 
3421.000000	97.613483 
3420.000000	97.612400 
3419.000000	97.608666 
3418.000000	97.604166 
3417.000000	97.602922 
3416.000000	97.607019 
3415.000000	97.613741 
3414.000000	97.617795 
3413.000000	97.616620 
3412.000000	97.612551 
3411.000000	97.609581 
3410.000000	97.609400 
3409.000000	97.611154 
3408.000000	97.613407 
3407.000000	97.615075 
3406.000000	97.615529 
3405.000000	97.615136 
3404.000000	97.615345 
3403.000000	97.617147 
3402.000000	97.620008 
3401.000000	97.623019 
3400.000000	97.626256 
3399.000000	97.629896 
3398.000000	97.632584 
3397.000000	97.632071 
3396.000000	97.627515 
3395.000000	97.620621 
3394.000000	97.614533 
3393.000000	97.611725 
3392.000000	97.612258 
3391.000000	97.613755 
3390.000000	97.613762 
3389.000000	97.612312 
3388.000000	97.611548 
3387.000000	97.612840 
3386.000000	97.615419 
3385.000000	97.617788 
3384.000000	97.619155 
3383.000000	97.619095 
3382.000000	97.617518 
3381.000000	97.615700 
3380.000000	97.615791 
3379.000000	97.618459 
3378.000000	97.622153 
3377.000000	97.625329 
3376.000000	97.627552 
3375.000000	97.627516 
3374.000000	97.622333 
3373.000000	97.611132 
3372.000000	97.598287 
3371.000000	97.590720 
3370.000000	97.591739 
3369.000000	97.598529 
3368.000000	97.605374 
3367.000000	97.608352 
3366.000000	97.607468 
3365.000000	97.605522 
3364.000000	97.605056 
3363.000000	97.605955 
3362.000000	97.606154 
3361.000000	97.604652 
3360.000000	97.602745 
3359.000000	97.601757 
3358.000000	97.600745 
3357.000000	97.597774 
3356.000000	97.592874 
3355.000000	97.588541 
3354.000000	97.587283 
3353.000000	97.589392 
3352.000000	97.592879 
3351.000000	97.594993 
3350.000000	97.593941 
3349.000000	97.589745 
3348.000000	97.583874 
3347.000000	97.578259 
3346.000000	97.574747 
3345.000000	97.574388 
3344.000000	97.576148 
3343.000000	97.576859 
3342.000000	97.573950 
3341.000000	97.568149 
3340.000000	97.562122 
3339.000000	97.556681 
3338.000000	97.550155 
3337.000000	97.541440 
3336.000000	97.531432 
3335.000000	97.521001 
3334.000000	97.510121 
3333.000000	97.500238 
3332.000000	97.495093 
3331.000000	97.496853 
3330.000000	97.502331 
3329.000000	97.504976 
3328.000000	97.500555 
3327.000000	97.490178 
3326.000000	97.478554 
3325.000000	97.470070 
3324.000000	97.465595 
3323.000000	97.461889 
3322.000000	97.454699 
3321.000000	97.443237 
3320.000000	97.431092 
3319.000000	97.422134 
3318.000000	97.416194 
3317.000000	97.409211 
3316.000000	97.396832 
3315.000000	97.377670 
3314.000000	97.354404 
3313.000000	97.332360 
3312.000000	97.315886 
3311.000000	97.305162 
3310.000000	97.296874 
3309.000000	97.287669 
3308.000000	97.275528 
3307.000000	97.258217 
3306.000000	97.233279 
3305.000000	97.200911 
3304.000000	97.164907 
3303.000000	97.129258 
3302.000000	97.095252 
3301.000000	97.062767 
3300.000000	97.032302 
3299.000000	97.003816 
3298.000000	96.975383 
3297.000000	96.945357 
3296.000000	96.914886 
3295.000000	96.886163 
3294.000000	96.858689 
3293.000000	96.829159 
3292.000000	96.794962 
3291.000000	96.756661 
3290.000000	96.717595 
3289.000000	96.682302 
3288.000000	96.654564 
3287.000000	96.635063 
3286.000000	96.620495 
3285.000000	96.605871 
3284.000000	96.587882 
3283.000000	96.566203 
3282.000000	96.542731 
3281.000000	96.520407 
3280.000000	96.501797 
3279.000000	96.487390 
3278.000000	96.475461 
3277.000000	96.464141 
3276.000000	96.453010 
3275.000000	96.442188 
3274.000000	96.430812 
3273.000000	96.417242 
3272.000000	96.400041 
3271.000000	96.378166 
3270.000000	96.351269 
3269.000000	96.320764 
3268.000000	96.289739 
3267.000000	96.260860 
3266.000000	96.234811 
3265.000000	96.211037 
3264.000000	96.188671 
3263.000000	96.166206 
3262.000000	96.141883 
3261.000000	96.115725 
3260.000000	96.090084 
3259.000000	96.066887 
3258.000000	96.045381 
3257.000000	96.023598 
3256.000000	96.000752 
3255.000000	95.976553 
3254.000000	95.949421 
3253.000000	95.917593 
3252.000000	95.881974 
3251.000000	95.846059 
3250.000000	95.812468 
3249.000000	95.780644 
3248.000000	95.748327 
3247.000000	95.714419 
3246.000000	95.679674 
3245.000000	95.644934 
3244.000000	95.609576 
3243.000000	95.572368 
3242.000000	95.533402 
3241.000000	95.494032 
3240.000000	95.454605 
3239.000000	95.413703 
3238.000000	95.370716 
3237.000000	95.327914 
3236.000000	95.288279 
3235.000000	95.251912 
3234.000000	95.216366 
3233.000000	95.179833 
3232.000000	95.141958 
3231.000000	95.101975 
3230.000000	95.058371 
3229.000000	95.010865 
3228.000000	94.961061 
3227.000000	94.911011 
3226.000000	94.862650 
3225.000000	94.818130 
3224.000000	94.778272 
3223.000000	94.740669 
3222.000000	94.701642 
3221.000000	94.660614 
3220.000000	94.620392 
3219.000000	94.582777 
3218.000000	94.546104 
3217.000000	94.507489 
3216.000000	94.465174 
3215.000000	94.418367 
3214.000000	94.367562 
3213.000000	94.316005 
3212.000000	94.268362 
3211.000000	94.226524 
3210.000000	94.188089 
3209.000000	94.149447 
3208.000000	94.108374 
3207.000000	94.063452 
3206.000000	94.014074 
3205.000000	93.962429 
3204.000000	93.912635 
3203.000000	93.865666 
3202.000000	93.816976 
3201.000000	93.761337 
3200.000000	93.698923 
3199.000000	93.634904 
3198.000000	93.573784 
3197.000000	93.515380 
3196.000000	93.455629 
3195.000000	93.390270 
3194.000000	93.318251 
3193.000000	93.242020 
3192.000000	93.164049 
3191.000000	93.083530 
3190.000000	92.997945 
3189.000000	92.907508 
3188.000000	92.815526 
3187.000000	92.723991 
3186.000000	92.631062 
3185.000000	92.533865 
3184.000000	92.431910 
3183.000000	92.326850 
3182.000000	92.220679 
3181.000000	92.114972 
3180.000000	92.010187 
3179.000000	91.904774 
3178.000000	91.796388 
3177.000000	91.684511 
3176.000000	91.570308 
3175.000000	91.453752 
3174.000000	91.333170 
3173.000000	91.208413 
3172.000000	91.082550 
3171.000000	90.959558 
3170.000000	90.841870 
3169.000000	90.730507 
3168.000000	90.625272 
3167.000000	90.523967 
3166.000000	90.423394 
3165.000000	90.322054 
3164.000000	90.220353 
3163.000000	90.117888 
3162.000000	90.012743 
3161.000000	89.903914 
3160.000000	89.791955 
3159.000000	89.676389 
3158.000000	89.555080 
3157.000000	89.427543 
3156.000000	89.296509 
3155.000000	89.164369 
3154.000000	89.029794 
3153.000000	88.889647 
3152.000000	88.743082 
3151.000000	88.592447 
3150.000000	88.441244 
3149.000000	88.292180 
3148.000000	88.145818 
3147.000000	87.999958 
3146.000000	87.851477 
3145.000000	87.699843 
3144.000000	87.547945 
3143.000000	87.398728 
3142.000000	87.252015 
3141.000000	87.104958 
3140.000000	86.954303 
3139.000000	86.797735 
3138.000000	86.634498 
3137.000000	86.465648 
3136.000000	86.293114 
3135.000000	86.118531 
3134.000000	85.943588 
3133.000000	85.770152 
3132.000000	85.597759 
3131.000000	85.421644 
3130.000000	85.236063 
3129.000000	85.039781 
3128.000000	84.836140 
3127.000000	84.628059 
3126.000000	84.415717 
3125.000000	84.199192 
3124.000000	83.979721 
3123.000000	83.756634 
3122.000000	83.525461 
3121.000000	83.280884 
3120.000000	83.020095 
3119.000000	82.742294 
3118.000000	82.446841 
3117.000000	82.133531 
3116.000000	81.803766 
3115.000000	81.460509 
3114.000000	81.107562 
3113.000000	80.748428 
3112.000000	80.384226 
3111.000000	80.012734 
3110.000000	79.631068 
3109.000000	79.239354 
3108.000000	78.840601 
3107.000000	78.437881 
3106.000000	78.033660 
3105.000000	77.631055 
3104.000000	77.232602 
3103.000000	76.837583 
3102.000000	76.443050 
3101.000000	76.047834 
3100.000000	75.653385 
3099.000000	75.260816 
3098.000000	74.870051 
3097.000000	74.482297 
3096.000000	74.100627 
3095.000000	73.727260 
3094.000000	73.362449 
3093.000000	73.006302 
3092.000000	72.659191 
3091.000000	72.319895 
3090.000000	71.986008 
3089.000000	71.657251 
3088.000000	71.336442 
3087.000000	71.026490 
3086.000000	70.728054 
3085.000000	70.440615 
3084.000000	70.164092 
3083.000000	69.898925 
3082.000000	69.645882 
3081.000000	69.405760 
3080.000000	69.178164 
3079.000000	68.961402 
3078.000000	68.755431 
3077.000000	68.564047 
3076.000000	68.391957 
3075.000000	68.240266 
3074.000000	68.106696 
3073.000000	67.989031 
3072.000000	67.885900 
3071.000000	67.795408 
3070.000000	67.716057 
3069.000000	67.648451 
3068.000000	67.593248 
3067.000000	67.548067 
3066.000000	67.509575 
3065.000000	67.478343 
3064.000000	67.458551 
3063.000000	67.453186 
3062.000000	67.462567 
3061.000000	67.486999 
3060.000000	67.526987 
3059.000000	67.580384 
3058.000000	67.642940 
3057.000000	67.712826 
3056.000000	67.792163 
3055.000000	67.883285 
3054.000000	67.985753 
3053.000000	68.097235 
3052.000000	68.214345 
3051.000000	68.331975 
3050.000000	68.444621 
3049.000000	68.549801 
3048.000000	68.648664 
3047.000000	68.742648 
3046.000000	68.831201 
3045.000000	68.912726 
3044.000000	68.985389 
3043.000000	69.046776 
3042.000000	69.095152 
3041.000000	69.131715 
3040.000000	69.159579 
3039.000000	69.179899 
3038.000000	69.190751 
3037.000000	69.189988 
3036.000000	69.177343 
3035.000000	69.153846 
3034.000000	69.121784 
3033.000000	69.085671 
3032.000000	69.050647 
3031.000000	69.018723 
3030.000000	68.988221 
3029.000000	68.957520 
3028.000000	68.927600 
3027.000000	68.900639 
3026.000000	68.878028 
3025.000000	68.860187 
3024.000000	68.846433 
3023.000000	68.834394 
3022.000000	68.821036 
3021.000000	68.804763 
3020.000000	68.785620 
3019.000000	68.764210 
3018.000000	68.742513 
3017.000000	68.725339 
3016.000000	68.717968 
3015.000000	68.721419 
3014.000000	68.731731 
3013.000000	68.744134 
3012.000000	68.756277 
3011.000000	68.767572 
3010.000000	68.777728 
3009.000000	68.786208 
3008.000000	68.790571 
3007.000000	68.783632 
3006.000000	68.752179 
3005.000000	68.678234 
3004.000000	68.543938 
3003.000000	68.344019 
3002.000000	68.104159 
3001.000000	67.888231 
3000.000000	67.775349 
2999.000000	67.815084 
2998.000000	67.995765 
2997.000000	68.251993 
2996.000000	68.497481 
2995.000000	68.651396 
2994.000000	68.647712 
2993.000000	68.444555 
2992.000000	68.046314 
2991.000000	67.520884 
2990.000000	66.985431 
2989.000000	66.558246 
2988.000000	66.309124 
2987.000000	66.245342 
2986.000000	66.335639 
2985.000000	66.541976 
2984.000000	66.831071 
2983.000000	67.169550 
2982.000000	67.522576 
2981.000000	67.862121 
2980.000000	68.174517 
2979.000000	68.458766 
2978.000000	68.719959 
2977.000000	68.964501 
2976.000000	69.197817 
2975.000000	69.423206 
2974.000000	69.643450 
2973.000000	69.865727 
2972.000000	70.104511 
2971.000000	70.376180 
2970.000000	70.686559 
2969.000000	71.021885 
2968.000000	71.353446 
2967.000000	71.654421 
2966.000000	71.914845 
2965.000000	72.141882 
2964.000000	72.348285 
2963.000000	72.542275 
2962.000000	72.725643 
2961.000000	72.895489 
2960.000000	73.044645 
2959.000000	73.162961 
2958.000000	73.240977 
2957.000000	73.271938 
2956.000000	73.250570 
2955.000000	73.173818 
2954.000000	73.045693 
2953.000000	72.879005 
2952.000000	72.689062 
2951.000000	72.486466 
2950.000000	72.277274 
2949.000000	72.066605 
2948.000000	71.858012 
2947.000000	71.651138 
2946.000000	71.444413 
2945.000000	71.239942 
2944.000000	71.042667 
2943.000000	70.855471 
2942.000000	70.678468 
2941.000000	70.513154 
2940.000000	70.364376 
2939.000000	70.238113 
2938.000000	70.139389 
2937.000000	70.071461 
2936.000000	70.034139 
2935.000000	70.023125 
2934.000000	70.033655 
2933.000000	70.064696 
2932.000000	70.117720 
2931.000000	70.192189 
2930.000000	70.284760 
2929.000000	70.392034 
2928.000000	70.511253 
2927.000000	70.638861 
2926.000000	70.771444 
2925.000000	70.908159 
2924.000000	71.049645 
2923.000000	71.194617 
2922.000000	71.339995 
2921.000000	71.484469 
2920.000000	71.629781 
2919.000000	71.778529 
2918.000000	71.932306 
2917.000000	72.091154 
2916.000000	72.252509 
2915.000000	72.411199 
2914.000000	72.563028 
2913.000000	72.708213 
2912.000000	72.849613 
2911.000000	72.988165 
2910.000000	73.122379 
2909.000000	73.251460 
2908.000000	73.375945 
2907.000000	73.495109 
2906.000000	73.606487 
2905.000000	73.708513 
2904.000000	73.801691 
2903.000000	73.886514 
2902.000000	73.962879 
2901.000000	74.030597 
2900.000000	74.089388 
2899.000000	74.137724 
2898.000000	74.173585 
2897.000000	74.197451 
2896.000000	74.212874 
2895.000000	74.224031 
2894.000000	74.234157 
2893.000000	74.246049 
2892.000000	74.261787 
2891.000000	74.281003 
2890.000000	74.300771 
2889.000000	74.317890 
2888.000000	74.330765 
2887.000000	74.339742 
2886.000000	74.347098 
2885.000000	74.356565 
2884.000000	74.371495 
2883.000000	74.393525 
2882.000000	74.423679 
2881.000000	74.463409 
2880.000000	74.512761 
2879.000000	74.568511 
2878.000000	74.626332 
2877.000000	74.684234 
2876.000000	74.741855 
2875.000000	74.797367 
2874.000000	74.848059 
2873.000000	74.893869 
2872.000000	74.937296 
2871.000000	74.979054 
2870.000000	75.016167 
2869.000000	75.045220 
2868.000000	75.065646 
2867.000000	75.079009 
2866.000000	75.086929 
2865.000000	75.090770 
2864.000000	75.091934 
2863.000000	75.091252 
2862.000000	75.088636 
2861.000000	75.083815 
2860.000000	75.076888 
2859.000000	75.068231 
2858.000000	75.058672 
2857.000000	75.049613 
2856.000000	75.042171 
2855.000000	75.036498 
2854.000000	75.032456 
2853.000000	75.030133 
2852.000000	75.028914 
2851.000000	75.027252 
2850.000000	75.024556 
2849.000000	75.022117 
2848.000000	75.020667 
2847.000000	75.018275 
2846.000000	75.012486 
2845.000000	75.003470 
2844.000000	74.993035 
2843.000000	74.981357 
2842.000000	74.966678 
2841.000000	74.947499 
2840.000000	74.922947 
2839.000000	74.891650 
2838.000000	74.852530 
2837.000000	74.806349 
2836.000000	74.754194 
2835.000000	74.694438 
2834.000000	74.623161 
2833.000000	74.537617 
2832.000000	74.437817 
2831.000000	74.325282 
2830.000000	74.202297 
2829.000000	74.071995 
2828.000000	73.936826 
2827.000000	73.796533 
2826.000000	73.649223 
2825.000000	73.494491 
2824.000000	73.334284 
2823.000000	73.171380 
2822.000000	73.008830 
2821.000000	72.850357 
2820.000000	72.699077 
2819.000000	72.555855 
2818.000000	72.420490 
2817.000000	72.293985 
2816.000000	72.177688 
2815.000000	72.070777 
2814.000000	71.971189 
2813.000000	71.879326 
2812.000000	71.798740 
2811.000000	71.732745 
2810.000000	71.682237 
2809.000000	71.647504 
2808.000000	71.630394 
2807.000000	71.633421 
2806.000000	71.657282 
2805.000000	71.699904 
2804.000000	71.757598 
2803.000000	71.826658 
2802.000000	71.903585 
2801.000000	71.983591 
2800.000000	72.059556 
2799.000000	72.123901 
2798.000000	72.172035 
2797.000000	72.203047 
2796.000000	72.217067 
2795.000000	72.213558 
2794.000000	72.192652 
2793.000000	72.156207 
2792.000000	72.106488 
2791.000000	72.045677 
2790.000000	71.977961 
2789.000000	71.910002 
2788.000000	71.847145 
2787.000000	71.790232 
2786.000000	71.737921 
2785.000000	71.691039 
2784.000000	71.653038 
2783.000000	71.627250 
2782.000000	71.615128 
2781.000000	71.615967 
2780.000000	71.626778 
2779.000000	71.643600 
2778.000000	71.664539 
2777.000000	71.690593 
2776.000000	71.722739 
2775.000000	71.760015 
2774.000000	71.801734 
2773.000000	71.849200 
2772.000000	71.902995 
2771.000000	71.960458 
2770.000000	72.018331 
2769.000000	72.076459 
2768.000000	72.136333 
2767.000000	72.197096 
2766.000000	72.255407 
2765.000000	72.308281 
2764.000000	72.353726 
2763.000000	72.389582 
2762.000000	72.414275 
2761.000000	72.428175 
2760.000000	72.432126 
2759.000000	72.425431 
2758.000000	72.407383 
2757.000000	72.379809 
2756.000000	72.345651 
2755.000000	72.305740 
2754.000000	72.259538 
2753.000000	72.208626 
2752.000000	72.156973 
2751.000000	72.107617 
2750.000000	72.060876 
2749.000000	72.015492 
2748.000000	71.969747 
2747.000000	71.921800 
2746.000000	71.870496 
2745.000000	71.815359 
2744.000000	71.754550 
2743.000000	71.684172 
2742.000000	71.601713 
2741.000000	71.509159 
2740.000000	71.410342 
2739.000000	71.305918 
2738.000000	71.193502 
2737.000000	71.072441 
2736.000000	70.946077 
2735.000000	70.819174 
2734.000000	70.695294 
2733.000000	70.577468 
2732.000000	70.470353 
2731.000000	70.381260 
2730.000000	70.318934 
2729.000000	70.289958 
2728.000000	70.295263 
2727.000000	70.330951 
2726.000000	70.392989 
2725.000000	70.479634 
2724.000000	70.588909 
2723.000000	70.716448 
2722.000000	70.857805 
2721.000000	71.011101 
2720.000000	71.175419 
2719.000000	71.348269 
2718.000000	71.526773 
2717.000000	71.710071 
2716.000000	71.898617 
2715.000000	72.092384 
2714.000000	72.291776 
2713.000000	72.498962 
2712.000000	72.716001 
2711.000000	72.942467 
2710.000000	73.176716 
2709.000000	73.418218 
2708.000000	73.666390 
2707.000000	73.918169 
2706.000000	74.169210 
2705.000000	74.417193 
2704.000000	74.662290 
2703.000000	74.905264 
2702.000000	75.146986 
2701.000000	75.388690 
2700.000000	75.630274 
2699.000000	75.868928 
2698.000000	76.101728 
2697.000000	76.329138 
2696.000000	76.553854 
2695.000000	76.776700 
2694.000000	76.996093 
2693.000000	77.211454 
2692.000000	77.424844 
2691.000000	77.638971 
2690.000000	77.855303 
2689.000000	78.074186 
2688.000000	78.295239 
2687.000000	78.517677 
2686.000000	78.741553 
2685.000000	78.968231 
2684.000000	79.198125 
2683.000000	79.428599 
2682.000000	79.655961 
2681.000000	79.878923 
2680.000000	80.098073 
2679.000000	80.312269 
2678.000000	80.517641 
2677.000000	80.709857 
2676.000000	80.885168 
2675.000000	81.039334 
2674.000000	81.168021 
2673.000000	81.269141 
2672.000000	81.343265 
2671.000000	81.391323 
2670.000000	81.412996 
2669.000000	81.407275 
2668.000000	81.373359 
2667.000000	81.311489 
2666.000000	81.224468 
2665.000000	81.117883 
2664.000000	80.997409 
2663.000000	80.866889 
2662.000000	80.730792 
2661.000000	80.596934 
2660.000000	80.473645 
2659.000000	80.364803 
2658.000000	80.270576 
2657.000000	80.192579 
2656.000000	80.134911 
2655.000000	80.099707 
2654.000000	80.084499 
2653.000000	80.084703 
2652.000000	80.096541 
2651.000000	80.117043 
2650.000000	80.143344 
2649.000000	80.172721 
2648.000000	80.201967 
2647.000000	80.226748 
2646.000000	80.243003 
2645.000000	80.248401 
2644.000000	80.240397 
2643.000000	80.213452 
2642.000000	80.160565 
2641.000000	80.077339 
2640.000000	79.962423 
2639.000000	79.814752 
2638.000000	79.633419 
2637.000000	79.420121 
2636.000000	79.178582 
2635.000000	78.911019 
2634.000000	78.617631 
2633.000000	78.300073 
2632.000000	77.963730 
2631.000000	77.616918 
2630.000000	77.269553 
2629.000000	76.931204 
2628.000000	76.607547 
2627.000000	76.299245 
2626.000000	76.006097 
2625.000000	75.730188 
2624.000000	75.472127 
2623.000000	75.226780 
2622.000000	74.987264 
2621.000000	74.752069 
2620.000000	74.524301 
2619.000000	74.305366 
2618.000000	74.094052 
2617.000000	73.891055 
2616.000000	73.699221 
2615.000000	73.518333 
2614.000000	73.343129 
2613.000000	73.167030 
2612.000000	72.985358 
2611.000000	72.795647 
2610.000000	72.598518 
2609.000000	72.398656 
2608.000000	72.202398 
2607.000000	72.014327 
2606.000000	71.837805 
2605.000000	71.676859 
2604.000000	71.534208 
2603.000000	71.408690 
2602.000000	71.298035 
2601.000000	71.203254 
2600.000000	71.127120 
2599.000000	71.069210 
2598.000000	71.025709 
2597.000000	70.993614 
2596.000000	70.972623 
2595.000000	70.964079 
2594.000000	70.971153 
2593.000000	70.999719 
2592.000000	71.056814 
2591.000000	71.148817 
2590.000000	71.282226 
2589.000000	71.463501 
2588.000000	71.694649 
2587.000000	71.969507 
2586.000000	72.276332 
2585.000000	72.603441 
2584.000000	72.941861 
2583.000000	73.285232 
2582.000000	73.629508 
2581.000000	73.971412 
2580.000000	74.305800 
2579.000000	74.626432 
2578.000000	74.930484 
2577.000000	75.219729 
2576.000000	75.495742 
2575.000000	75.757033 
2574.000000	76.003063 
2573.000000	76.237630 
2572.000000	76.464856 
2571.000000	76.684076 
2570.000000	76.891457 
2569.000000	77.084217 
2568.000000	77.260901 
2567.000000	77.421367 
2566.000000	77.570528 
2565.000000	77.718729 
2564.000000	77.873293 
2563.000000	78.031610 
2562.000000	78.186892 
2561.000000	78.338502 
2560.000000	78.491898 
2559.000000	78.650595 
2558.000000	78.813613 
2557.000000	78.979762 
2556.000000	79.149396 
2555.000000	79.322424 
2554.000000	79.498723 
2553.000000	79.679533 
2552.000000	79.864239 
2551.000000	80.046828 
2550.000000	80.219716 
2549.000000	80.380134 
2548.000000	80.529041 
2547.000000	80.665801 
2546.000000	80.788821 
2545.000000	80.899772 
2544.000000	81.001429 
2543.000000	81.091913 
2542.000000	81.166156 
2541.000000	81.222490 
2540.000000	81.263116 
2539.000000	81.289671 
2538.000000	81.304312 
2537.000000	81.314048 
2536.000000	81.326801 
2535.000000	81.342440 
2534.000000	81.353875 
2533.000000	81.358044 
2532.000000	81.360213 
2531.000000	81.366373 
2530.000000	81.376809 
2529.000000	81.388406 
2528.000000	81.397925 
2527.000000	81.400918 
2526.000000	81.391846 
2525.000000	81.367759 
2524.000000	81.329545 
2523.000000	81.279196 
2522.000000	81.218657 
2521.000000	81.150659 
2520.000000	81.076651 
2519.000000	80.994236 
2518.000000	80.900715 
2517.000000	80.798854 
2516.000000	80.695268 
2515.000000	80.593994 
2514.000000	80.495912 
2513.000000	80.403030 
2512.000000	80.317751 
2511.000000	80.238418 
2510.000000	80.161411 
2509.000000	80.088440 
2508.000000	80.027333 
2507.000000	79.985300 
2506.000000	79.965405 
2505.000000	79.969189 
2504.000000	79.998278 
2503.000000	80.053576 
2502.000000	80.137076 
2501.000000	80.253907 
2500.000000	80.407874 
2499.000000	80.594651 
2498.000000	80.803286 
2497.000000	81.024504 
2496.000000	81.254382 
2495.000000	81.491017 
2494.000000	81.731944 
2493.000000	81.974494 
2492.000000	82.214338 
2491.000000	82.443926 
2490.000000	82.657181 
2489.000000	82.856345 
2488.000000	83.049779 
2487.000000	83.241694 
2486.000000	83.427093 
2485.000000	83.597133 
2484.000000	83.746622 
2483.000000	83.876960 
2482.000000	83.995456 
2481.000000	84.110607 
2480.000000	84.223196 
2479.000000	84.322406 
2478.000000	84.395489 
2477.000000	84.440853 
2476.000000	84.466674 
2475.000000	84.477836 
2474.000000	84.471425 
2473.000000	84.446016 
2472.000000	84.408752 
2471.000000	84.371456 
2470.000000	84.345891 
2469.000000	84.344719 
2468.000000	84.380178 
2467.000000	84.456699 
2466.000000	84.567063 
2465.000000	84.697923 
2464.000000	84.837430 
2463.000000	84.978258 
2462.000000	85.118476 
2461.000000	85.261423 
2460.000000	85.410942 
2459.000000	85.564710 
2458.000000	85.715048 
2457.000000	85.857143 
2456.000000	85.993136 
2455.000000	86.127342 
2454.000000	86.261049 
2453.000000	86.392906 
2452.000000	86.520589 
2451.000000	86.641102 
2450.000000	86.753198 
2449.000000	86.860521 
2448.000000	86.968684 
2447.000000	87.078444 
2446.000000	87.185409 
2445.000000	87.286396 
2444.000000	87.381205 
2443.000000	87.467756 
2442.000000	87.541518 
2441.000000	87.601999 
2440.000000	87.654731 
2439.000000	87.704220 
2438.000000	87.749299 
2437.000000	87.788069 
2436.000000	87.823287 
2435.000000	87.859905 
2434.000000	87.900294 
2433.000000	87.944062 
2432.000000	87.989744 
2431.000000	88.034900 
2430.000000	88.077271 
2429.000000	88.117368 
2428.000000	88.157608 
2427.000000	88.198182 
2426.000000	88.236215 
2425.000000	88.268986 
2424.000000	88.295148 
2423.000000	88.313504 
2422.000000	88.324645 
2421.000000	88.333765 
2420.000000	88.347828 
2419.000000	88.369975 
2418.000000	88.400381 
2417.000000	88.441417 
2416.000000	88.496595 
2415.000000	88.564531 
2414.000000	88.639414 
2413.000000	88.717877 
2412.000000	88.800402 
2411.000000	88.885831 
2410.000000	88.970286 
2409.000000	89.052568 
2408.000000	89.135199 
2407.000000	89.218883 
2406.000000	89.301087 
2405.000000	89.381162 
2404.000000	89.461047 
2403.000000	89.539138 
2402.000000	89.609098 
2401.000000	89.667161 
2400.000000	89.715649 
2399.000000	89.756725 
2398.000000	89.787546 
2397.000000	89.804842 
2396.000000	89.810542 
2395.000000	89.809998 
2394.000000	89.807757 
2393.000000	89.807215 
2392.000000	89.811190 
2391.000000	89.820275 
2390.000000	89.832564 
2389.000000	89.845959 
2388.000000	89.858658 
2387.000000	89.868034 
2386.000000	89.873302 
2385.000000	89.880139 
2384.000000	89.898750 
2383.000000	89.936073 
2382.000000	89.993079 
2381.000000	90.069705 
2380.000000	90.166194 
2379.000000	90.276446 
2378.000000	90.385837 
2377.000000	90.480566 
2376.000000	90.555276 
2375.000000	90.609360 
2374.000000	90.643341 
2373.000000	90.663805 
2372.000000	90.683768 
2371.000000	90.711500 
2370.000000	90.746903 
2369.000000	90.793563 
2368.000000	90.860248 
2367.000000	90.941278 
2366.000000	91.010642 
2365.000000	91.048380 
2364.000000	91.060208 
2363.000000	91.062011 
2362.000000	91.062531 
2361.000000	91.069487 
2360.000000	91.089106 
2359.000000	91.119102 
2358.000000	91.159520 
2357.000000	91.228139 
2356.000000	91.334661 
2355.000000	91.449847 
2354.000000	91.533408 
2353.000000	91.573170 
2352.000000	91.585501 
2351.000000	91.590345 
2350.000000	91.605145 
2349.000000	91.647333 
2348.000000	91.712998 
2347.000000	91.766636 
2346.000000	91.767987 
2345.000000	91.729049 
2344.000000	91.702192 
2343.000000	91.715730 
2342.000000	91.771663 
2341.000000	91.861161 
2340.000000	91.963182 
2339.000000	92.046384 
2338.000000	92.097494 
2337.000000	92.131591 
2336.000000	92.165997 
2335.000000	92.194470 
2334.000000	92.203395 
2333.000000	92.194345 
2332.000000	92.183540 
2331.000000	92.177863 
2330.000000	92.165115 
2329.000000	92.132877 
2328.000000	92.079501 
2327.000000	92.015193 
2326.000000	91.951866 
2325.000000	91.903025 
2324.000000	91.881747 
2323.000000	91.892079 
2322.000000	91.929459 
2321.000000	91.981901 
2320.000000	92.037325 
2319.000000	92.083312 
2318.000000	92.115344 
2317.000000	92.138956 
2316.000000	92.158433 
2315.000000	92.163980 
2314.000000	92.139462 
2313.000000	92.083248 
2312.000000	92.009710 
2311.000000	91.932759 
2310.000000	91.857930 
2309.000000	91.792373 
2308.000000	91.746387 
2307.000000	91.720070 
2306.000000	91.696899 
2305.000000	91.655981 
2304.000000	91.588152 
2303.000000	91.499200 
2302.000000	91.405756 
2301.000000	91.326813 
2300.000000	91.270998 
2299.000000	91.229549 
2298.000000	91.188343 
2297.000000	91.147796 
2296.000000	91.121795 
2295.000000	91.119145 
2294.000000	91.134462 
2293.000000	91.160444 
2292.000000	91.197472 
2291.000000	91.248702 
2290.000000	91.313771 
2289.000000	91.392297 
2288.000000	91.485925 
2287.000000	91.592369 
2286.000000	91.703661 
2285.000000	91.813698 
2284.000000	91.922064 
2283.000000	92.027865 
2282.000000	92.127905 
2281.000000	92.223383 
2280.000000	92.320223 
2279.000000	92.418400 
2278.000000	92.510366 
2277.000000	92.593577 
2276.000000	92.674744 
2275.000000	92.756992 
2274.000000	92.833469 
2273.000000	92.899471 
2272.000000	92.959941 
2271.000000	93.018415 
2270.000000	93.068637 
2269.000000	93.104927 
2268.000000	93.131882 
2267.000000	93.156304 
2266.000000	93.177000 
2265.000000	93.189096 
2264.000000	93.190944 
2263.000000	93.181848 
2262.000000	93.160000 
2261.000000	93.126511 
2260.000000	93.084132 
2259.000000	93.030436 
2258.000000	92.961721 
2257.000000	92.883179 
2256.000000	92.803008 
2255.000000	92.715619 
2254.000000	92.606723 
2253.000000	92.478717 
2252.000000	92.355968 
2251.000000	92.260880 
2250.000000	92.199286 
2249.000000	92.172448 
2248.000000	92.186172 
2247.000000	92.240720 
2246.000000	92.325231 
2245.000000	92.430023 
2244.000000	92.553596 
2243.000000	92.692161 
2242.000000	92.833982 
2241.000000	92.969732 
2240.000000	93.097243 
2239.000000	93.211954 
2238.000000	93.306478 
2237.000000	93.384831 
2236.000000	93.462216 
2235.000000	93.544025 
2234.000000	93.619315 
2233.000000	93.681022 
2232.000000	93.736960 
2231.000000	93.793942 
2230.000000	93.847447 
2229.000000	93.894853 
2228.000000	93.942501 
2227.000000	93.991125 
2226.000000	94.030598 
2225.000000	94.058156 
2224.000000	94.086124 
2223.000000	94.123082 
2222.000000	94.163418 
2221.000000	94.203192 
2220.000000	94.248499 
2219.000000	94.299402 
2218.000000	94.343802 
2217.000000	94.377405 
2216.000000	94.412320 
2215.000000	94.455576 
2214.000000	94.496539 
2213.000000	94.525818 
2212.000000	94.549270 
2211.000000	94.573613 
2210.000000	94.596087 
2209.000000	94.617616 
2208.000000	94.646727 
2207.000000	94.680260 
2206.000000	94.700025 
2205.000000	94.699465 
2204.000000	94.693746 
2203.000000	94.692852 
2202.000000	94.686713 
2201.000000	94.669531 
2200.000000	94.656479 
2199.000000	94.661015 
2198.000000	94.675273 
2197.000000	94.687751 
2196.000000	94.701600 
2195.000000	94.720514 
2194.000000	94.733813 
2193.000000	94.729942 
2192.000000	94.709635 
2191.000000	94.675622 
2190.000000	94.627860 
2189.000000	94.578285 
2188.000000	94.548059 
2187.000000	94.538914 
2186.000000	94.529748 
2185.000000	94.512835 
2184.000000	94.508076 
2183.000000	94.526115 
2182.000000	94.542687 
2181.000000	94.529157 
2180.000000	94.488003 
2179.000000	94.441221 
2178.000000	94.403900 
2177.000000	94.382335 
2176.000000	94.376064 
2175.000000	94.368974 
2174.000000	94.338137 
2173.000000	94.280725 
2172.000000	94.211923 
2171.000000	94.132461 
2170.000000	94.026111 
2169.000000	93.897109 
2168.000000	93.780108 
2167.000000	93.699179 
2166.000000	93.642028 
2165.000000	93.586037 
2164.000000	93.524577 
2163.000000	93.460457 
2162.000000	93.406614 
2161.000000	93.403005 
2160.000000	93.488612 
2159.000000	93.634122 
2158.000000	93.750204 
2157.000000	93.785877 
2156.000000	93.766905 
2155.000000	93.730348 
2154.000000	93.682162 
2153.000000	93.627560 
2152.000000	93.589204 
2151.000000	93.573292 
2150.000000	93.552835 
2149.000000	93.506475 
2148.000000	93.448185 
2147.000000	93.401435 
2146.000000	93.368212 
2145.000000	93.338261 
2144.000000	93.305087 
2143.000000	93.259055 
2142.000000	93.186485 
2141.000000	93.088393 
2140.000000	92.981502 
2139.000000	92.873209 
2138.000000	92.756061 
2137.000000	92.630739 
2136.000000	92.508024 
2135.000000	92.380364 
2134.000000	92.219049 
2133.000000	92.011501 
2132.000000	91.777132 
2131.000000	91.535371 
2130.000000	91.280518 
2129.000000	90.999226 
2128.000000	90.694027 
2127.000000	90.377227 
2126.000000	90.054270 
2125.000000	89.723418 
2124.000000	89.383377 
2123.000000	89.035448 
2122.000000	88.685174 
2121.000000	88.343443 
2120.000000	88.018400 
2119.000000	87.708017 
2118.000000	87.409477 
2117.000000	87.131866 
2116.000000	86.889071 
2115.000000	86.685269 
2114.000000	86.519399 
2113.000000	86.397482 
2112.000000	86.325497 
2111.000000	86.295118 
2110.000000	86.292883 
2109.000000	86.320834 
2108.000000	86.392300 
2107.000000	86.509246 
2106.000000	86.659319 
2105.000000	86.833216 
2104.000000	87.028074 
2103.000000	87.234038 
2102.000000	87.435696 
2101.000000	87.631193 
2100.000000	87.835028 
2099.000000	88.057351 
2098.000000	88.293435 
2097.000000	88.535021 
2096.000000	88.776131 
2095.000000	89.004286 
2094.000000	89.203006 
2093.000000	89.370033 
2092.000000	89.519617 
2091.000000	89.662410 
2090.000000	89.796451 
2089.000000	89.920282 
2088.000000	90.038946 
2087.000000	90.152141 
2086.000000	90.251454 
2085.000000	90.334054 
2084.000000	90.404141 
2083.000000	90.457756 
2082.000000	90.484805 
2081.000000	90.491953 
2080.000000	90.503980 
2079.000000	90.534258 
2078.000000	90.572546 
2077.000000	90.609492 
2076.000000	90.653084 
2075.000000	90.710654 
2074.000000	90.773637 
2073.000000	90.832901 
2072.000000	90.892341 
2071.000000	90.955874 
2070.000000	91.018205 
2069.000000	91.080555 
2068.000000	91.159178 
2067.000000	91.265197 
2066.000000	91.389128 
2065.000000	91.515369 
2064.000000	91.639456 
2063.000000	91.763691 
2062.000000	91.891234 
2061.000000	92.031252 
2060.000000	92.191454 
2059.000000	92.358324 
2058.000000	92.504872 
2057.000000	92.625903 
2056.000000	92.742730 
2055.000000	92.862767 
2054.000000	92.960677 
2053.000000	93.016498 
2052.000000	93.048260 
2051.000000	93.088690 
2050.000000	93.151058 
2049.000000	93.233204 
2048.000000	93.331376 
2047.000000	93.429844 
2046.000000	93.500343 
2045.000000	93.535318 
2044.000000	93.560090 
2043.000000	93.592296 
2042.000000	93.614288 
2041.000000	93.605818 
2040.000000	93.576769 
2039.000000	93.544915 
2038.000000	93.509562 
2037.000000	93.470541 
2036.000000	93.444297 
2035.000000	93.436559 
2034.000000	93.426722 
2033.000000	93.403398 
2032.000000	93.386655 
2031.000000	93.393152 
2030.000000	93.412062 
2029.000000	93.437594 
2028.000000	93.491354 
2027.000000	93.589282 
2026.000000	93.716187 
2025.000000	93.854785 
2024.000000	94.010589 
2023.000000	94.185865 
2022.000000	94.357450 
2021.000000	94.502384 
2020.000000	94.620510 
2019.000000	94.714609 
2018.000000	94.779353 
2017.000000	94.828870 
2016.000000	94.898293 
2015.000000	94.994745 
2014.000000	95.081836 
2013.000000	95.132730 
2012.000000	95.165518 
2011.000000	95.207978 
2010.000000	95.262629 
2009.000000	95.327673 
2008.000000	95.414205 
2007.000000	95.515527 
2006.000000	95.592161 
2005.000000	95.615363 
2004.000000	95.598240 
2003.000000	95.567288 
2002.000000	95.537335 
2001.000000	95.524339 
2000.000000	95.544836 
1999.000000	95.585394 
1998.000000	95.605577 
1997.000000	95.589339 
1996.000000	95.561074 
1995.000000	95.537152 
1994.000000	95.501509 
1993.000000	95.450302 
1992.000000	95.419451 
1991.000000	95.436145 
1990.000000	95.478840 
1989.000000	95.514195 
1988.000000	95.536753 
1987.000000	95.549409 
1986.000000	95.543608 
1985.000000	95.525365 
1984.000000	95.523699 
1983.000000	95.543638 
1982.000000	95.547644 
1981.000000	95.515625 
1980.000000	95.490879 
1979.000000	95.526863 
1978.000000	95.613566 
1977.000000	95.698420 
1976.000000	95.753583 
1975.000000	95.779579 
1974.000000	95.776440 
1973.000000	95.757347 
1972.000000	95.757770 
1971.000000	95.792209 
1970.000000	95.828706 
1969.000000	95.833076 
1968.000000	95.810378 
1967.000000	95.780633 
1966.000000	95.747841 
1965.000000	95.718708 
1964.000000	95.714981 
1963.000000	95.740362 
1962.000000	95.767336 
1961.000000	95.779557 
1960.000000	95.795444 
1959.000000	95.827700 
1958.000000	95.856142 
1957.000000	95.864466 
1956.000000	95.868898 
1955.000000	95.887990 
1954.000000	95.915375 
1953.000000	95.943757 
1952.000000	95.982972 
1951.000000	96.033302 
1950.000000	96.071631 
1949.000000	96.085203 
1948.000000	96.093545 
1947.000000	96.115616 
1946.000000	96.140758 
1945.000000	96.153272 
1944.000000	96.161917 
1943.000000	96.184579 
1942.000000	96.222858 
1941.000000	96.269104 
1940.000000	96.319281 
1939.000000	96.363752 
1938.000000	96.387110 
1937.000000	96.391656 
1936.000000	96.398956 
1935.000000	96.416709 
1934.000000	96.430606 
1933.000000	96.440041 
1932.000000	96.467244 
1931.000000	96.518199 
1930.000000	96.566184 
1929.000000	96.589057 
1928.000000	96.599418 
1927.000000	96.616796 
1926.000000	96.638353 
1925.000000	96.654295 
1924.000000	96.667129 
1923.000000	96.680873 
1922.000000	96.688105 
1921.000000	96.685332 
1920.000000	96.684387 
1919.000000	96.694167 
1918.000000	96.710104 
1917.000000	96.730005 
1916.000000	96.757422 
1915.000000	96.784209 
1914.000000	96.791191 
1913.000000	96.775212 
1912.000000	96.755625 
1911.000000	96.745693 
1910.000000	96.738447 
1909.000000	96.729759 
1908.000000	96.731416 
1907.000000	96.744657 
1906.000000	96.750447 
1905.000000	96.739589 
1904.000000	96.727746 
1903.000000	96.731590 
1902.000000	96.746669 
1901.000000	96.760955 
1900.000000	96.772338 
1899.000000	96.777460 
1898.000000	96.765428 
1897.000000	96.738020 
1896.000000	96.715798 
1895.000000	96.712655 
1894.000000	96.720693 
1893.000000	96.731313 
1892.000000	96.751123 
1891.000000	96.783992 
1890.000000	96.817528 
1889.000000	96.842982 
1888.000000	96.868816 
1887.000000	96.901904 
1886.000000	96.935897 
1885.000000	96.967716 
1884.000000	97.005359 
1883.000000	97.049630 
1882.000000	97.086313 
1881.000000	97.108493 
1880.000000	97.129620 
1879.000000	97.158558 
1878.000000	97.182564 
1877.000000	97.192042 
1876.000000	97.197798 
1875.000000	97.208549 
1874.000000	97.214932 
1873.000000	97.210080 
1872.000000	97.204364 
1871.000000	97.203556 
1870.000000	97.191715 
1869.000000	97.160868 
1868.000000	97.135928 
1867.000000	97.138336 
1866.000000	97.155609 
1865.000000	97.168012 
1864.000000	97.174674 
1863.000000	97.180731 
1862.000000	97.179457 
1861.000000	97.163590 
1860.000000	97.140903 
1859.000000	97.122669 
1858.000000	97.108848 
1857.000000	97.096986 
1856.000000	97.090898 
1855.000000	97.088590 
1854.000000	97.077097 
1853.000000	97.048798 
1852.000000	97.014135 
1851.000000	96.982682 
1850.000000	96.946082 
1849.000000	96.899453 
1848.000000	96.858190 
1847.000000	96.837599 
1846.000000	96.828133 
1845.000000	96.808704 
1844.000000	96.782665 
1843.000000	96.772287 
1842.000000	96.779149 
1841.000000	96.790646 
1840.000000	96.805784 
1839.000000	96.825279 
1838.000000	96.842894 
1837.000000	96.857833 
1836.000000	96.879740 
1835.000000	96.912708 
1834.000000	96.946802 
1833.000000	96.975763 
1832.000000	97.007862 
1831.000000	97.042155 
1830.000000	97.061857 
1829.000000	97.069819 
1828.000000	97.089670 
1827.000000	97.127130 
1826.000000	97.158495 
1825.000000	97.166927 
1824.000000	97.169675 
1823.000000	97.185678 
1822.000000	97.206698 
1821.000000	97.220306 
1820.000000	97.231792 
1819.000000	97.247120 
1818.000000	97.258493 
1817.000000	97.259801 
1816.000000	97.255749 
1815.000000	97.247573 
1814.000000	97.225434 
1813.000000	97.189352 
1812.000000	97.156143 
1811.000000	97.133353 
1810.000000	97.111148 
1809.000000	97.084351 
1808.000000	97.062179 
1807.000000	97.048717 
1806.000000	97.032206 
1805.000000	97.003810 
1804.000000	96.971193 
1803.000000	96.945825 
1802.000000	96.925804 
1801.000000	96.907984 
1800.000000	96.898285 
1799.000000	96.894626 
1798.000000	96.884770 
1797.000000	96.866291 
1796.000000	96.852577 
1795.000000	96.851363 
1794.000000	96.846467 
1793.000000	96.818933 
1792.000000	96.783311 
1791.000000	96.767898 
1790.000000	96.771016 
1789.000000	96.774460 
1788.000000	96.773625 
1787.000000	96.769437 
1786.000000	96.756606 
1785.000000	96.735171 
1784.000000	96.718275 
1783.000000	96.713641 
1782.000000	96.704211 
1781.000000	96.674409 
1780.000000	96.638676 
1779.000000	96.613272 
1778.000000	96.584854 
1777.000000	96.530528 
1776.000000	96.458383 
1775.000000	96.398075 
1774.000000	96.352213 
1773.000000	96.287697 
1772.000000	96.197707 
1771.000000	96.110669 
1770.000000	96.031513 
1769.000000	95.948875 
1768.000000	95.867513 
1767.000000	95.797165 
1766.000000	95.730785 
1765.000000	95.656295 
1764.000000	95.575042 
1763.000000	95.486321 
1762.000000	95.379712 
1761.000000	95.265454 
1760.000000	95.171306 
1759.000000	95.102094 
1758.000000	95.029354 
1757.000000	94.923914 
1756.000000	94.798874 
1755.000000	94.679149 
1754.000000	94.559541 
1753.000000	94.429032 
1752.000000	94.302957 
1751.000000	94.204899 
1750.000000	94.129614 
1749.000000	94.053310 
1748.000000	93.973954 
1747.000000	93.902844 
1746.000000	93.829123 
1745.000000	93.741505 
1744.000000	93.658571 
1743.000000	93.602894 
1742.000000	93.564566 
1741.000000	93.516299 
1740.000000	93.453650 
1739.000000	93.400354 
1738.000000	93.370711 
1737.000000	93.369861 
1736.000000	93.423705 
1735.000000	93.537899 
1734.000000	93.663591 
1733.000000	93.761092 
1732.000000	93.828053 
1731.000000	93.866286 
1730.000000	93.875601 
1729.000000	93.866667 
1728.000000	93.866027 
1727.000000	93.883605 
1726.000000	93.900050 
1725.000000	93.902635 
1724.000000	93.906923 
1723.000000	93.927035 
1722.000000	93.953759 
1721.000000	93.976034 
1720.000000	94.005488 
1719.000000	94.048814 
1718.000000	94.092802 
1717.000000	94.150716 
1716.000000	94.251592 
1715.000000	94.387372 
1714.000000	94.529220 
1713.000000	94.663851 
1712.000000	94.798021 
1711.000000	94.937032 
1710.000000	95.070356 
1709.000000	95.190365 
1708.000000	95.309768 
1707.000000	95.433922 
1706.000000	95.534836 
1705.000000	95.592978 
1704.000000	95.626800 
1703.000000	95.669876 
1702.000000	95.732502 
1701.000000	95.769292 
1700.000000	95.766584 
1699.000000	95.773949 
1698.000000	95.793880 
1697.000000	95.802354 
1696.000000	95.802112 
1695.000000	95.814369 
1694.000000	95.836687 
1693.000000	95.838384 
1692.000000	95.816429 
1691.000000	95.781371 
1690.000000	95.728259 
1689.000000	95.652437 
1688.000000	95.579545 
1687.000000	95.540622 
1686.000000	95.526028 
1685.000000	95.459897 
1684.000000	95.331428 
1683.000000	95.244704 
1682.000000	95.204091 
1681.000000	95.144170 
1680.000000	95.070195 
1679.000000	95.013069 
1678.000000	94.970827 
1677.000000	94.910294 
1676.000000	94.822743 
1675.000000	94.739441 
1674.000000	94.677562 
1673.000000	94.618148 
1672.000000	94.558035 
1671.000000	94.504551 
1670.000000	94.435193 
1669.000000	94.333724 
1668.000000	94.238604 
1667.000000	94.179482 
1666.000000	94.124157 
1665.000000	94.025562 
1664.000000	93.864652 
1663.000000	93.651001 
1662.000000	93.395957 
1661.000000	93.096632 
1660.000000	92.759496 
1659.000000	92.390465 
1658.000000	91.964514 
1657.000000	91.467215 
1656.000000	90.905819 
1655.000000	90.234913 
1654.000000	89.166009 
1653.000000	87.642021 
1652.000000	86.281563 
1651.000000	85.383630 
1650.000000	84.662377 
1649.000000	83.877495 
1648.000000	82.972427 
1647.000000	82.109119 
1646.000000	81.479233 
1645.000000	81.099731 
1644.000000	80.885516 
1643.000000	80.775570 
1642.000000	80.696320 
1641.000000	80.562462 
1640.000000	80.352460 
1639.000000	80.089692 
1638.000000	79.727919 
1637.000000	79.104658 
1636.000000	78.129399 
1635.000000	76.994724 
1634.000000	75.903614 
1633.000000	74.810966 
1632.000000	73.624093 
1631.000000	72.316171 
1630.000000	70.833127 
1629.000000	69.088708 
1628.000000	67.123174 
1627.000000	65.122501 
1626.000000	63.150147 
1625.000000	61.036674 
1624.000000	58.642168 
1623.000000	56.154278 
1622.000000	53.928866 
1621.000000	52.083949 
1620.000000	50.517566 
1619.000000	49.130324 
1618.000000	47.834987 
1617.000000	46.557439 
1616.000000	45.396538 
1615.000000	44.552448 
1614.000000	44.039630 
1613.000000	43.734226 
1612.000000	43.615928 
1611.000000	43.808982 
1610.000000	44.386618 
1609.000000	45.235547 
1608.000000	46.176449 
1607.000000	47.078589 
1606.000000	47.806687 
1605.000000	48.202358 
1604.000000	48.189108 
1603.000000	47.817694 
1602.000000	47.168506 
1601.000000	46.273932 
1600.000000	45.177941 
1599.000000	43.985144 
1598.000000	42.779246 
1597.000000	41.560808 
1596.000000	40.327313 
1595.000000	39.141124 
1594.000000	38.041586 
1593.000000	36.967931 
1592.000000	35.852933 
1591.000000	34.715180 
1590.000000	33.589999 
1589.000000	32.458785 
1588.000000	31.330066 
1587.000000	30.310878 
1586.000000	29.507442 
1585.000000	28.921877 
1584.000000	28.530542 
1583.000000	28.379649 
1582.000000	28.498355 
1581.000000	28.797204 
1580.000000	29.169036 
1579.000000	29.628211 
1578.000000	30.266992 
1577.000000	31.112490 
1576.000000	32.072493 
1575.000000	33.029805 
1574.000000	33.919273 
1573.000000	34.726729 
1572.000000	35.507809 
1571.000000	36.382417 
1570.000000	37.396347 
1569.000000	38.398032 
1568.000000	39.235017 
1567.000000	39.958833 
1566.000000	40.694237 
1565.000000	41.458851 
1564.000000	42.190483 
1563.000000	42.866668 
1562.000000	43.544447 
1561.000000	44.311758 
1560.000000	45.270018 
1559.000000	46.424625 
1558.000000	47.549610 
1557.000000	48.449774 
1556.000000	49.188548 
1555.000000	49.916493 
1554.000000	50.677733 
1553.000000	51.398893 
1552.000000	52.018244 
1551.000000	52.578811 
1550.000000	53.145227 
1549.000000	53.710977 
1548.000000	54.238778 
1547.000000	54.755451 
1546.000000	55.330189 
1545.000000	55.992924 
1544.000000	56.725973 
1543.000000	57.532850 
1542.000000	58.465083 
1541.000000	59.561458 
1540.000000	60.781566 
1539.000000	62.010420 
1538.000000	63.126859 
1537.000000	64.090884 
1536.000000	64.961844 
1535.000000	65.831222 
1534.000000	66.713631 
1533.000000	67.507486 
1532.000000	68.125136 
1531.000000	68.568829 
1530.000000	68.848600 
1529.000000	68.926379 
1528.000000	68.748807 
1527.000000	68.283887 
1526.000000	67.548370 
1525.000000	66.616640 
1524.000000	65.542491 
1523.000000	64.272350 
1522.000000	62.770393 
1521.000000	61.308696 
1520.000000	60.287801 
1519.000000	59.778383 
1518.000000	59.629222 
1517.000000	59.745931 
1516.000000	60.077246 
1515.000000	60.535102 
1514.000000	61.014142 
1513.000000	61.428683 
1512.000000	61.698755 
1511.000000	61.782584 
1510.000000	61.697781 
1509.000000	61.477887 
1508.000000	61.132003 
1507.000000	60.746659 
1506.000000	60.571270 
1505.000000	60.737489 
1504.000000	61.143997 
1503.000000	61.692142 
1502.000000	62.357166 
1501.000000	63.132279 
1500.000000	63.994111 
1499.000000	64.922152 
1498.000000	65.924516 
1497.000000	67.007063 
1496.000000	68.125451 
1495.000000	69.210295 
1494.000000	70.227095 
1493.000000	71.184424 
1492.000000	72.121184 
1491.000000	73.084424 
1490.000000	74.076185 
1489.000000	75.035946 
1488.000000	75.914058 
1487.000000	76.719177 
1486.000000	77.463216 
1485.000000	78.117882 
1484.000000	78.670593 
1483.000000	79.160095 
1482.000000	79.624298 
1481.000000	80.060867 
1480.000000	80.458576 
1479.000000	80.826026 
1478.000000	81.153537 
1477.000000	81.399502 
1476.000000	81.546388 
1475.000000	81.618231 
1474.000000	81.590670 
1473.000000	81.370311 
1472.000000	80.948190 
1471.000000	80.406893 
1470.000000	79.735268 
1469.000000	78.831761 
1468.000000	77.627013 
1467.000000	76.082951 
1466.000000	74.165826 
1465.000000	72.017196 
1464.000000	70.084227 
1463.000000	68.724285 
1462.000000	67.821067 
1461.000000	66.982426 
1460.000000	65.800835 
1459.000000	63.871939 
1458.000000	60.786304 
1457.000000	56.820080 
1456.000000	53.332014 
1455.000000	51.319487 
1454.000000	50.706141 
1453.000000	51.206460 
1452.000000	52.629802 
1451.000000	54.686293 
1450.000000	57.016977 
1449.000000	59.367005 
1448.000000	61.560577 
1447.000000	63.454784 
1446.000000	65.054807 
1445.000000	66.521012 
1444.000000	68.032030 
1443.000000	69.688374 
1442.000000	71.487949 
1441.000000	73.316004 
1440.000000	75.011027 
1439.000000	76.495521 
1438.000000	77.809922 
1437.000000	78.967856 
1436.000000	79.866209 
1435.000000	80.456494 
1434.000000	80.832801 
1433.000000	81.078217 
1432.000000	81.186101 
1431.000000	81.135845 
1430.000000	80.952537 
1429.000000	80.665564 
1428.000000	80.269434 
1427.000000	79.751752 
1426.000000	79.079287 
1425.000000	78.169688 
1424.000000	76.986742 
1423.000000	75.610069 
1422.000000	74.049151 
1421.000000	72.050238 
1420.000000	69.234923 
1419.000000	65.598144 
1418.000000	61.647904 
1417.000000	57.767476 
1416.000000	53.975420 
1415.000000	50.295317 
1414.000000	46.878332 
1413.000000	43.938093 
1412.000000	41.762539 
1411.000000	40.643699 
1410.000000	40.662898 
1409.000000	41.680736 
1408.000000	43.550283 
1407.000000	46.170322 
1406.000000	49.368420 
1405.000000	52.869064 
1404.000000	56.364644 
1403.000000	59.609544 
1402.000000	62.528465 
1401.000000	65.229966 
1400.000000	67.850107 
1399.000000	70.359880 
1398.000000	72.609170 
1397.000000	74.557538 
1396.000000	76.303796 
1395.000000	77.914198 
1394.000000	79.344132 
1393.000000	80.535183 
1392.000000	81.499797 
1391.000000	82.290531 
1390.000000	82.956906 
1389.000000	83.527856 
1388.000000	84.002722 
1387.000000	84.368306 
1386.000000	84.623941 
1385.000000	84.760078 
1384.000000	84.720603 
1383.000000	84.400336 
1382.000000	83.679144 
1381.000000	82.495183 
1380.000000	80.966520 
1379.000000	79.466505 
1378.000000	78.439115 
1377.000000	78.029245 
1376.000000	77.955270 
1375.000000	77.755531 
1374.000000	77.117032 
1373.000000	75.976343 
1372.000000	74.349909 
1371.000000	72.185981 
1370.000000	69.404905 
1369.000000	66.010063 
1368.000000	62.160584 
1367.000000	58.124556 
1366.000000	54.120024 
1365.000000	50.221844 
1364.000000	46.479850 
1363.000000	43.131149 
1362.000000	40.569469 
1361.000000	39.014412 
1360.000000	38.350290 
1359.000000	38.319244 
1358.000000	38.737912 
1357.000000	39.560906 
1356.000000	40.837039 
1355.000000	42.607150 
1354.000000	44.810348 
1353.000000	47.289381 
1352.000000	49.881607 
1351.000000	52.478660 
1350.000000	55.010300 
1349.000000	57.418637 
1348.000000	59.668095 
1347.000000	61.755482 
1346.000000	63.694034 
1345.000000	65.491323 
1344.000000	67.146502 
1343.000000	68.663502 
1342.000000	70.062037 
1341.000000	71.371969 
1340.000000	72.614137 
1339.000000	73.788283 
1338.000000	74.885136 
1337.000000	75.905772 
1336.000000	76.860787 
1335.000000	77.757458 
1334.000000	78.596534 
1333.000000	79.376425 
1332.000000	80.093999 
1331.000000	80.745218 
1330.000000	81.329096 
1329.000000	81.846669 
1328.000000	82.293027 
1327.000000	82.654965 
1326.000000	82.917219 
1325.000000	83.066349 
1324.000000	83.090730 
1323.000000	82.980602 
1322.000000	82.725440 
1321.000000	82.304776 
1320.000000	81.684656 
1319.000000	80.827220 
1318.000000	79.694272 
1317.000000	78.228166 
1316.000000	76.331075 
1315.000000	73.872870 
1314.000000	70.732256 
1313.000000	66.862184 
1312.000000	62.352632 
1311.000000	57.438949 
1310.000000	52.444074 
1309.000000	47.725482 
1308.000000	43.662213 
1307.000000	40.605002 
1306.000000	38.764452 
1305.000000	38.154266 
1304.000000	38.639171 
1303.000000	39.988591 
1302.000000	41.905265 
1301.000000	44.095205 
1300.000000	46.356842 
1299.000000	48.596923 
1298.000000	50.778057 
1297.000000	52.881033 
1296.000000	54.903675 
1295.000000	56.852948 
1294.000000	58.722377 
1293.000000	60.489752 
1292.000000	62.137607 
1291.000000	63.663614 
1290.000000	65.072078 
1289.000000	66.367910 
1288.000000	67.561303 
1287.000000	68.668592 
1286.000000	69.703140 
1285.000000	70.669846 
1284.000000	71.571661 
1283.000000	72.417107 
1282.000000	73.217201 
1281.000000	73.977105 
1280.000000	74.695852 
1279.000000	75.374370 
1278.000000	76.019050 
1277.000000	76.636283 
1276.000000	77.227579 
1275.000000	77.792116 
1274.000000	78.329852 
1273.000000	78.839803 
1272.000000	79.319783 
1271.000000	79.771427 
1270.000000	80.201310 
1269.000000	80.613622 
1268.000000	81.006973 
1267.000000	81.381657 
1266.000000	81.742860 
1265.000000	82.091320 
1264.000000	82.417946 
1263.000000	82.715379 
1262.000000	82.989122 
1261.000000	83.249101 
1260.000000	83.495739 
1259.000000	83.722811 
1258.000000	83.928342 
1257.000000	84.113883 
1256.000000	84.277412 
1255.000000	84.415336 
1254.000000	84.527255 
1253.000000	84.611143 
1252.000000	84.657911 
1251.000000	84.656861 
1250.000000	84.599694 
1249.000000	84.470874 
1248.000000	84.239028 
1247.000000	83.862025 
1246.000000	83.288834 
1245.000000	82.445076 
1244.000000	81.223934 
1243.000000	79.504966 
1242.000000	77.191357 
1241.000000	74.261720 
1240.000000	70.850945 
1239.000000	67.316892 
1238.000000	64.189295 
1237.000000	61.991488 
1236.000000	61.053693 
1235.000000	61.407027 
1234.000000	62.792919 
1233.000000	64.801147 
1232.000000	67.050807 
1231.000000	69.286598 
1230.000000	71.372328 
1229.000000	73.250392 
1228.000000	74.911165 
1227.000000	76.372718 
1226.000000	77.663529 
1225.000000	78.807940 
1224.000000	79.816728 
1223.000000	80.683468 
1222.000000	81.387973 
1221.000000	81.912209 
1220.000000	82.270419 
1219.000000	82.532135 
1218.000000	82.801502 
1217.000000	83.155563 
1216.000000	83.599871 
1215.000000	84.083616 
1214.000000	84.548294 
1213.000000	84.958938 
1212.000000	85.304977 
1211.000000	85.592165 
1210.000000	85.835475 
1209.000000	86.048468 
1208.000000	86.237703 
1207.000000	86.410706 
1206.000000	86.582253 
1205.000000	86.764835 
1204.000000	86.959025 
1203.000000	87.160694 
1202.000000	87.370584 
1201.000000	87.588750 
1200.000000	87.807631 
1199.000000	88.020974 
1198.000000	88.233100 
1197.000000	88.449148 
1196.000000	88.662491 
1195.000000	88.862640 
1194.000000	89.049858 
1193.000000	89.231175 
1192.000000	89.407475 
1191.000000	89.575117 
1190.000000	89.734394 
1189.000000	89.885319 
1188.000000	90.020726 
1187.000000	90.134782 
1186.000000	90.233222 
1185.000000	90.324805 
1184.000000	90.408690 
1183.000000	90.480464 
1182.000000	90.543195 
1181.000000	90.601103 
1180.000000	90.649328 
1179.000000	90.681573 
1178.000000	90.700732 
1177.000000	90.710464 
1176.000000	90.703947 
1175.000000	90.673098 
1174.000000	90.621440 
1173.000000	90.555553 
1172.000000	90.471587 
1171.000000	90.362887 
1170.000000	90.233287 
1169.000000	90.089734 
1168.000000	89.927880 
1167.000000	89.736246 
1166.000000	89.507452 
1165.000000	89.233468 
1164.000000	88.895193 
1163.000000	88.464938 
1162.000000	87.909807 
1161.000000	87.182087 
1160.000000	86.215971 
1159.000000	84.947523 
1158.000000	83.338447 
1157.000000	81.390703 
1156.000000	79.174177 
1155.000000	76.863078 
1154.000000	74.725413 
1153.000000	73.048515 
1152.000000	72.053328 
1151.000000	71.834855 
1150.000000	72.340182 
1149.000000	73.406181 
1148.000000	74.840042 
1147.000000	76.479221 
1146.000000	78.202289 
1145.000000	79.916253 
1144.000000	81.548139 
1143.000000	83.046383 
1142.000000	84.384098 
1141.000000	85.555017 
1140.000000	86.565078 
1139.000000	87.429569 
1138.000000	88.171228 
1137.000000	88.809682 
1136.000000	89.353285 
1135.000000	89.807803 
1134.000000	90.187647 
1133.000000	90.508621 
1132.000000	90.773684 
1131.000000	90.974877 
1130.000000	91.104824 
1129.000000	91.157861 
1128.000000	91.124414 
1127.000000	90.990510 
1126.000000	90.734326 
1125.000000	90.313454 
1124.000000	89.659390 
1123.000000	88.683263 
1122.000000	87.264421 
1121.000000	85.215879 
1120.000000	82.282519 
1119.000000	78.232058 
1118.000000	73.030963 
1117.000000	67.029640 
1116.000000	61.031298 
1115.000000	56.085368 
1114.000000	53.018066 
1113.000000	52.066170 
1112.000000	52.940422 
1111.000000	55.154069 
1110.000000	58.253556 
1109.000000	61.850357 
1108.000000	65.583160 
1107.000000	69.129589 
1106.000000	72.267899 
1105.000000	74.909062 
1104.000000	77.062257 
1103.000000	78.784834 
1102.000000	80.158108 
1101.000000	81.272966 
1100.000000	82.213784 
1099.000000	83.051637 
1098.000000	83.839426 
1097.000000	84.595678 
1096.000000	85.301800 
1095.000000	85.932928 
1094.000000	86.489250 
1093.000000	86.987718 
1092.000000	87.437163 
1091.000000	87.840973 
1090.000000	88.213084 
1089.000000	88.568642 
1088.000000	88.904687 
1087.000000	89.208581 
1086.000000	89.479268 
1085.000000	89.723958 
1084.000000	89.943149 
1083.000000	90.137117 
1082.000000	90.318032 
1081.000000	90.497569 
1080.000000	90.671741 
1079.000000	90.834388 
1078.000000	90.993361 
1077.000000	91.154873 
1076.000000	91.305322 
1075.000000	91.430091 
1074.000000	91.538605 
1073.000000	91.649313 
1072.000000	91.762022 
1071.000000	91.866728 
1070.000000	91.967093 
1069.000000	92.071856 
1068.000000	92.174074 
1067.000000	92.262445 
1066.000000	92.343343 
1065.000000	92.428639 
1064.000000	92.511472 
1063.000000	92.577428 
1062.000000	92.631042 
1061.000000	92.688681 
1060.000000	92.753334 
1059.000000	92.817580 
1058.000000	92.882186 
1057.000000	92.950397 
1056.000000	93.013240 
1055.000000	93.062157 
1054.000000	93.107457 
1053.000000	93.163009 
1052.000000	93.222300 
1051.000000	93.272980 
1050.000000	93.323722 
1049.000000	93.389302 
1048.000000	93.461487 
1047.000000	93.522920 
1046.000000	93.575514 
1045.000000	93.628233 
1044.000000	93.673173 
1043.000000	93.701965 
1042.000000	93.731599 
1041.000000	93.783219 
1040.000000	93.844459 
1039.000000	93.882984 
1038.000000	93.890693 
1037.000000	93.885048 
1036.000000	93.873190 
1035.000000	93.845785 
1034.000000	93.801071 
1033.000000	93.742183 
1032.000000	93.651464 
1031.000000	93.496558 
1030.000000	93.259655 
1029.000000	92.929901 
1028.000000	92.466103 
1027.000000	91.790019 
1026.000000	90.801483 
1025.000000	89.362681 
1024.000000	87.296149 
1023.000000	84.497620 
1022.000000	81.108499 
1021.000000	77.529847 
1020.000000	74.176670 
1019.000000	71.153472 
1018.000000	68.162788 
1017.000000	64.791510 
1016.000000	60.966026 
1015.000000	57.181282 
1014.000000	54.297190 
1013.000000	53.075822 
1012.000000	53.813154 
1011.000000	56.253386 
1010.000000	59.770116 
1009.000000	63.686028 
1008.000000	67.516423 
1007.000000	71.009496 
1006.000000	74.065807 
1005.000000	76.668436 
1004.000000	78.850559 
1003.000000	80.669742 
1002.000000	82.185017 
1001.000000	83.448934 
1000.000000	84.509290 
999.000000	 85.408331 
998.000000	 86.179365 
997.000000	 86.846888 
996.000000	 87.430103 
995.000000	 87.944702 
994.000000	 88.401214 
993.000000	 88.804379 
992.000000	 89.157607 
991.000000	 89.468370 
990.000000	 89.746414 
989.000000	 89.996340 
988.000000	 90.216134 
987.000000	 90.405035 
986.000000	 90.569508 
985.000000	 90.719788 
984.000000	 90.863927 
983.000000	 91.005657 
982.000000	 91.142522 
981.000000	 91.264932 
980.000000	 91.363472 
979.000000	 91.439394 
978.000000	 91.502270 
977.000000	 91.556976 
976.000000	 91.601542 
975.000000	 91.638870 
974.000000	 91.678695 
973.000000	 91.723046 
972.000000	 91.760724 
971.000000	 91.782596 
970.000000	 91.792525 
969.000000	 91.796402 
968.000000	 91.790672 
967.000000	 91.770090 
966.000000	 91.737544 
965.000000	 91.697393 
964.000000	 91.647862 
963.000000	 91.589176 
962.000000	 91.530736 
961.000000	 91.480085 
960.000000	 91.431479 
959.000000	 91.374707 
958.000000	 91.309450 
957.000000	 91.242613 
956.000000	 91.177073 
955.000000	 91.110627 
954.000000	 91.040568 
953.000000	 90.963669 
952.000000	 90.879036 
951.000000	 90.796915 
950.000000	 90.735655 
949.000000	 90.702071 
948.000000	 90.682758 
947.000000	 90.662210 
946.000000	 90.641152 
945.000000	 90.628861 
944.000000	 90.626558 
943.000000	 90.629002 
942.000000	 90.635710 
941.000000	 90.649719 
940.000000	 90.669258 
939.000000	 90.689159 
938.000000	 90.706384 
937.000000	 90.716579 
936.000000	 90.709619 
935.000000	 90.675759 
934.000000	 90.611810 
933.000000	 90.514411 
932.000000	 90.371258 
931.000000	 90.163475 
930.000000	 89.868617 
929.000000	 89.451975 
928.000000	 88.857509 
927.000000	 88.010993 
926.000000	 86.824727 
925.000000	 85.195864 
924.000000	 83.021482 
923.000000	 80.258747 
922.000000	 77.023626 
921.000000	 73.682632 
920.000000	 70.854641 
919.000000	 69.227757 
918.000000	 69.225357 
917.000000	 70.768597 
916.000000	 73.348085 
915.000000	 76.324541 
914.000000	 79.208810 
913.000000	 81.756034 
912.000000	 83.897500 
911.000000	 85.645458 
910.000000	 87.048149 
909.000000	 88.169664 
908.000000	 89.068263 
907.000000	 89.789533 
906.000000	 90.375340 
905.000000	 90.862430 
904.000000	 91.271857 
903.000000	 91.613806 
902.000000	 91.901795 
901.000000	 92.150684 
900.000000	 92.366261 
899.000000	 92.551471 
898.000000	 92.718242 
897.000000	 92.878283 
896.000000	 93.027976 
895.000000	 93.157492 
894.000000	 93.269695 
893.000000	 93.374618 
892.000000	 93.471412 
891.000000	 93.553504 
890.000000	 93.627651 
889.000000	 93.709897 
888.000000	 93.803874 
887.000000	 93.898020 
886.000000	 93.982352 
885.000000	 94.054150 
884.000000	 94.110516 
883.000000	 94.151161 
882.000000	 94.187044 
881.000000	 94.231422 
880.000000	 94.283435 
879.000000	 94.332747 
878.000000	 94.376270 
877.000000	 94.417127 
876.000000	 94.452882 
875.000000	 94.480029 
874.000000	 94.504325 
873.000000	 94.530298 
872.000000	 94.545813 
871.000000	 94.533200 
870.000000	 94.490621 
869.000000	 94.426543 
868.000000	 94.338175 
867.000000	 94.211083 
866.000000	 94.034757 
865.000000	 93.801803 
864.000000	 93.494004 
863.000000	 93.082362 
862.000000	 92.535933 
861.000000	 91.813913 
860.000000	 90.847162 
859.000000	 89.532801 
858.000000	 87.735458 
857.000000	 85.281560 
856.000000	 81.978768 
855.000000	 77.705486 
854.000000	 72.547782 
853.000000	 66.896586 
852.000000	 61.421481 
851.000000	 56.881079 
850.000000	 53.846161 
849.000000	 52.550914 
848.000000	 52.973294 
847.000000	 54.958063 
846.000000	 58.206137 
845.000000	 62.227291 
844.000000	 66.424683 
843.000000	 70.294504 
842.000000	 73.582584 
841.000000	 76.278760 
840.000000	 78.488214 
839.000000	 80.319686 
838.000000	 81.856025 
837.000000	 83.160497 
836.000000	 84.275902 
835.000000	 85.229164 
834.000000	 86.047131 
833.000000	 86.758467 
832.000000	 87.379933 
831.000000	 87.916301 
830.000000	 88.376445 
829.000000	 88.776466 
828.000000	 89.127507 
827.000000	 89.435999 
826.000000	 89.715104 
825.000000	 89.978641 
824.000000	 90.224694 
823.000000	 90.442671 
822.000000	 90.633236 
821.000000	 90.804013 
820.000000	 90.953455 
819.000000	 91.078520 
818.000000	 91.191190 
817.000000	 91.308693 
816.000000	 91.432543 
815.000000	 91.553893 
814.000000	 91.673797 
813.000000	 91.799609 
812.000000	 91.925339 
811.000000	 92.035398 
810.000000	 92.127089 
809.000000	 92.211578 
808.000000	 92.293095 
807.000000	 92.364662 
806.000000	 92.424463 
805.000000	 92.479625 
804.000000	 92.532382 
803.000000	 92.576563 
802.000000	 92.607939 
801.000000	 92.625751 
800.000000	 92.626278 
799.000000	 92.607866 
798.000000	 92.578891 
797.000000	 92.547450 
796.000000	 92.507406 
795.000000	 92.447760 
794.000000	 92.369844 
793.000000	 92.280333 
792.000000	 92.173160 
791.000000	 92.035020 
790.000000	 91.864290 
789.000000	 91.667364 
788.000000	 91.438026 
787.000000	 91.153796 
786.000000	 90.788899 
785.000000	 90.318152 
784.000000	 89.713235 
783.000000	 88.946511 
782.000000	 87.989382 
781.000000	 86.794175 
780.000000	 85.292533 
779.000000	 83.434894 
778.000000	 81.228397 
777.000000	 78.726653 
776.000000	 76.005735 
775.000000	 73.184446 
774.000000	 70.471912 
773.000000	 68.180602 
772.000000	 66.674527 
771.000000	 66.256709 
770.000000	 67.036609 
769.000000	 68.867196 
768.000000	 71.407043 
767.000000	 74.257240 
766.000000	 77.082964 
765.000000	 79.668801 
764.000000	 81.912794 
763.000000	 83.797681 
762.000000	 85.360591 
761.000000	 86.655213 
760.000000	 87.719699 
759.000000	 88.578943 
758.000000	 89.266765 
757.000000	 89.823726 
756.000000	 90.274468 
755.000000	 90.630092 
754.000000	 90.916010 
753.000000	 91.176738 
752.000000	 91.447517 
751.000000	 91.736645 
750.000000	 92.037107 
749.000000	 92.338067 
748.000000	 92.621607 
747.000000	 92.866388 
746.000000	 93.064203 
745.000000	 93.224768 
744.000000	 93.362859 
743.000000	 93.490073 
742.000000	 93.615151 
741.000000	 93.737466 
740.000000	 93.842071 
739.000000	 93.916170 
738.000000	 93.968951 
737.000000	 94.021568 
736.000000	 94.081711 
735.000000	 94.143161 
734.000000	 94.204539 
733.000000	 94.269184 
732.000000	 94.330356 
731.000000	 94.377622 
730.000000	 94.416154 
729.000000	 94.458914 
728.000000	 94.504214 
727.000000	 94.541176 
726.000000	 94.572345 
725.000000	 94.609394 
724.000000	 94.645821 
723.000000	 94.656900 
722.000000	 94.634037 
721.000000	 94.605646 
720.000000	 94.613578 
719.000000	 94.670156 
718.000000	 94.748908 
717.000000	 94.813512 
716.000000	 94.844927 
715.000000	 94.851687 
714.000000	 94.859365 
713.000000	 94.881045 
712.000000	 94.903168 
711.000000	 94.908293 
710.000000	 94.901153 
709.000000	 94.897298 
708.000000	 94.897551 
707.000000	 94.892978 
706.000000	 94.883697 
705.000000	 94.875637 
704.000000	 94.864724 
703.000000	 94.840531 
702.000000	 94.805844 
701.000000	 94.775257 
700.000000	 94.753728 
699.000000	 94.734762 
698.000000	 94.712820 
697.000000	 94.684769 
696.000000	 94.645132 
695.000000	 94.592332 
694.000000	 94.540922 
693.000000	 94.508375 
692.000000	 94.490685 
691.000000	 94.470207 
690.000000	 94.438490 
689.000000	 94.399687 
688.000000	 94.358852 
687.000000	 94.321634 
686.000000	 94.300746 
685.000000	 94.298209 
684.000000	 94.288873 
683.000000	 94.247760 
682.000000	 94.183832 
681.000000	 94.126768 
680.000000	 94.088307 
679.000000	 94.058384 
678.000000	 94.025743 
677.000000	 93.976378 
676.000000	 93.896877 
675.000000	 93.787726 
674.000000	 93.657884 
673.000000	 93.517450 
672.000000	 93.397419 
671.000000	 93.369468 
670.000000	 93.489614 
669.000000	 93.737660 
668.000000	 93.889825 
667.000000	 93.524864 
666.000000	 92.777890 
665.000000	 92.046618 
664.000000	 91.387127 
663.000000	 90.681722 
662.000000	 89.837502 
661.000000	 88.814334 
660.000000	 87.587502 
659.000000	 86.140161 
658.000000	 84.454684 
657.000000	 82.460832 
656.000000	 80.077753 
655.000000	 77.345716 
654.000000	 74.402656 
653.000000	 71.400994 
652.000000	 68.494387 
651.000000	 65.953368 
650.000000	 63.882785 

