PE IR                   SPECTRUM    ASCII       PEDS        1.60        
  -1
~SP.SP
18/03/14
13:49:30.00
18/03/14
13:49:30.00
pili

650.000000
4









SPECTRUM 100,CPU32 MAIN 00.02.8200 12-DECEMBER-2006 10:00:00
MIR TGS
MIR
OPTKBR
78890
0.200000

4.000000
STRONG
RATIO
SPECTRUM
MAGNITUDE
UNIVERSAL ATR
DOUBLE

COMBINED


0


#HDR
-1
-1
#GR
CM-1
%T
0.00002384185791015625
0.0
4000.000000
-1.000000
3351
8
99.059551
78.081058
#DATA
4000.000000	99.030448 
3999.000000	99.033225 
3998.000000	99.042624 
3997.000000	99.053369 
3996.000000	99.059551 
3995.000000	99.059074 
3994.000000	99.054368 
3993.000000	99.048983 
3992.000000	99.043924 
3991.000000	99.037513 
3990.000000	99.028617 
3989.000000	99.019091 
3988.000000	99.012427 
3987.000000	99.010365 
3986.000000	99.011527 
3985.000000	99.013152 
3984.000000	99.013479 
3983.000000	99.012381 
3982.000000	99.010523 
3981.000000	99.008669 
3980.000000	99.007510 
3979.000000	99.007506 
3978.000000	99.008533 
3977.000000	99.009505 
3976.000000	99.008568 
3975.000000	99.004341 
3974.000000	98.997412 
3973.000000	98.990296 
3972.000000	98.985221 
3971.000000	98.982011 
3970.000000	98.978602 
3969.000000	98.973737 
3968.000000	98.968935 
3967.000000	98.967531 
3966.000000	98.971911 
3965.000000	98.981734 
3964.000000	98.994254 
3963.000000	99.006028 
3962.000000	99.014875 
3961.000000	99.020750 
3960.000000	99.024713 
3959.000000	99.027180 
3958.000000	99.027212 
3957.000000	99.023582 
3956.000000	99.016770 
3955.000000	99.009574 
3954.000000	99.005430 
3953.000000	99.005852 
3952.000000	99.009172 
3951.000000	99.011790 
3950.000000	99.010758 
3949.000000	99.006016 
3948.000000	99.000717 
3947.000000	98.998874 
3946.000000	99.002089 
3945.000000	99.008182 
3944.000000	99.012722 
3943.000000	99.011917 
3942.000000	99.005045 
3941.000000	98.994531 
3940.000000	98.983361 
3939.000000	98.973464 
3938.000000	98.966969 
3937.000000	98.966525 
3936.000000	98.972768 
3935.000000	98.981590 
3934.000000	98.986042 
3933.000000	98.982395 
3932.000000	98.973780 
3931.000000	98.966512 
3930.000000	98.963359 
3929.000000	98.962703 
3928.000000	98.963380 
3927.000000	98.967707 
3926.000000	98.978822 
3925.000000	98.994710 
3924.000000	99.007115 
3923.000000	99.008824 
3922.000000	99.000140 
3921.000000	98.987792 
3920.000000	98.978763 
3919.000000	98.974983 
3918.000000	98.972967 
3917.000000	98.968407 
3916.000000	98.961009 
3915.000000	98.954890 
3914.000000	98.954850 
3913.000000	98.962583 
3912.000000	98.975076 
3911.000000	98.986092 
3910.000000	98.989565 
3909.000000	98.982940 
3908.000000	98.968779 
3907.000000	98.953708 
3906.000000	98.945400 
3905.000000	98.947650 
3904.000000	98.956853 
3903.000000	98.965784 
3902.000000	98.970660 
3901.000000	98.971608 
3900.000000	98.969383 
3899.000000	98.963910 
3898.000000	98.956313 
3897.000000	98.950388 
3896.000000	98.950587 
3895.000000	98.959826 
3894.000000	98.978068 
3893.000000	99.000239 
3892.000000	99.016356 
3891.000000	99.018444 
3890.000000	99.009013 
3889.000000	98.996514 
3888.000000	98.985978 
3887.000000	98.978710 
3886.000000	98.975334 
3885.000000	98.975338 
3884.000000	98.977416 
3883.000000	98.980788 
3882.000000	98.984956 
3881.000000	98.988814 
3880.000000	98.990074 
3879.000000	98.987115 
3878.000000	98.980663 
3877.000000	98.972071 
3876.000000	98.963872 
3875.000000	98.959207 
3874.000000	98.957707 
3873.000000	98.955730 
3872.000000	98.952390 
3871.000000	98.951376 
3870.000000	98.955587 
3869.000000	98.963490 
3868.000000	98.971924 
3867.000000	98.977840 
3866.000000	98.979804 
3865.000000	98.979922 
3864.000000	98.980811 
3863.000000	98.982268 
3862.000000	98.981623 
3861.000000	98.976477 
3860.000000	98.967649 
3859.000000	98.959435 
3858.000000	98.955622 
3857.000000	98.954954 
3856.000000	98.952440 
3855.000000	98.949177 
3854.000000	98.952057 
3853.000000	98.956871 
3852.000000	98.958692 
3851.000000	98.964112 
3850.000000	98.973980 
3849.000000	98.981506 
3848.000000	98.979303 
3847.000000	98.965920 
3846.000000	98.948383 
3845.000000	98.937914 
3844.000000	98.941404 
3843.000000	98.955839 
3842.000000	98.969835 
3841.000000	98.972529 
3840.000000	98.962329 
3839.000000	98.947815 
3838.000000	98.939869 
3837.000000	98.942381 
3836.000000	98.951154 
3835.000000	98.960416 
3834.000000	98.967030 
3833.000000	98.970639 
3832.000000	98.971388 
3831.000000	98.968485 
3830.000000	98.961928 
3829.000000	98.954543 
3828.000000	98.951548 
3827.000000	98.957059 
3826.000000	98.968898 
3825.000000	98.978038 
3824.000000	98.974636 
3823.000000	98.957890 
3822.000000	98.940891 
3821.000000	98.938119 
3820.000000	98.951740 
3819.000000	98.975264 
3818.000000	98.996659 
3817.000000	99.003819 
3816.000000	98.994209 
3815.000000	98.976738 
3814.000000	98.963305 
3813.000000	98.959409 
3812.000000	98.963056 
3811.000000	98.968922 
3810.000000	98.971647 
3809.000000	98.968217 
3808.000000	98.959719 
3807.000000	98.950225 
3806.000000	98.943452 
3805.000000	98.941677 
3804.000000	98.945168 
3803.000000	98.953579 
3802.000000	98.965503 
3801.000000	98.974785 
3800.000000	98.976963 
3799.000000	98.974214 
3798.000000	98.969738 
3797.000000	98.966306 
3796.000000	98.966937 
3795.000000	98.973305 
3794.000000	98.983568 
3793.000000	98.992934 
3792.000000	98.997001 
3791.000000	98.994921 
3790.000000	98.989376 
3789.000000	98.984119 
3788.000000	98.982161 
3787.000000	98.984681 
3786.000000	98.989711 
3785.000000	98.991724 
3784.000000	98.985088 
3783.000000	98.969367 
3782.000000	98.951042 
3781.000000	98.939943 
3780.000000	98.941941 
3779.000000	98.953833 
3778.000000	98.967422 
3777.000000	98.976997 
3776.000000	98.980354 
3775.000000	98.977057 
3774.000000	98.967937 
3773.000000	98.955314 
3772.000000	98.943039 
3771.000000	98.934710 
3770.000000	98.929882 
3769.000000	98.924255 
3768.000000	98.915868 
3767.000000	98.907371 
3766.000000	98.903243 
3765.000000	98.905872 
3764.000000	98.913322 
3763.000000	98.921065 
3762.000000	98.925731 
3761.000000	98.927487 
3760.000000	98.928141 
3759.000000	98.928068 
3758.000000	98.927708 
3757.000000	98.929624 
3756.000000	98.935180 
3755.000000	98.940819 
3754.000000	98.939675 
3753.000000	98.928142 
3752.000000	98.910570 
3751.000000	98.894622 
3750.000000	98.885962 
3749.000000	98.889573 
3748.000000	98.906435 
3747.000000	98.929588 
3746.000000	98.947148 
3745.000000	98.948638 
3744.000000	98.931487 
3743.000000	98.904756 
3742.000000	98.879703 
3741.000000	98.860420 
3740.000000	98.847623 
3739.000000	98.843059 
3738.000000	98.851036 
3737.000000	98.874437 
3736.000000	98.906756 
3735.000000	98.931838 
3734.000000	98.937968 
3733.000000	98.927997 
3732.000000	98.912385 
3731.000000	98.899319 
3730.000000	98.890975 
3729.000000	98.884637 
3728.000000	98.877515 
3727.000000	98.870570 
3726.000000	98.867846 
3725.000000	98.873138 
3724.000000	98.887237 
3723.000000	98.907047 
3722.000000	98.925966 
3721.000000	98.937895 
3720.000000	98.940711 
3719.000000	98.935501 
3718.000000	98.924693 
3717.000000	98.910082 
3716.000000	98.892661 
3715.000000	98.874736 
3714.000000	98.862953 
3713.000000	98.867259 
3712.000000	98.889677 
3711.000000	98.917099 
3710.000000	98.935233 
3709.000000	98.942673 
3708.000000	98.945598 
3707.000000	98.947182 
3706.000000	98.945597 
3705.000000	98.938753 
3704.000000	98.928599 
3703.000000	98.920947 
3702.000000	98.919585 
3701.000000	98.922809 
3700.000000	98.926824 
3699.000000	98.929140 
3698.000000	98.929108 
3697.000000	98.928002 
3696.000000	98.927884 
3695.000000	98.929777 
3694.000000	98.933609 
3693.000000	98.939280 
3692.000000	98.946939 
3691.000000	98.955488 
3690.000000	98.960978 
3689.000000	98.958966 
3688.000000	98.951109 
3687.000000	98.943170 
3686.000000	98.936159 
3685.000000	98.927380 
3684.000000	98.915301 
3683.000000	98.901283 
3682.000000	98.888988 
3681.000000	98.882702 
3680.000000	98.884857 
3679.000000	98.893096 
3678.000000	98.900660 
3677.000000	98.902873 
3676.000000	98.899773 
3675.000000	98.891432 
3674.000000	98.882283 
3673.000000	98.877992 
3672.000000	98.877144 
3671.000000	98.879838 
3670.000000	98.888791 
3669.000000	98.900821 
3668.000000	98.911681 
3667.000000	98.920391 
3666.000000	98.926868 
3665.000000	98.932191 
3664.000000	98.937358 
3663.000000	98.940439 
3662.000000	98.937333 
3661.000000	98.925601 
3660.000000	98.907403 
3659.000000	98.889272 
3658.000000	98.879931 
3657.000000	98.885342 
3656.000000	98.902237 
3655.000000	98.920189 
3654.000000	98.929614 
3653.000000	98.925268 
3652.000000	98.907894 
3651.000000	98.886017 
3650.000000	98.869080 
3649.000000	98.858031 
3648.000000	98.852757 
3647.000000	98.859426 
3646.000000	98.881324 
3645.000000	98.913104 
3644.000000	98.944269 
3643.000000	98.964892 
3642.000000	98.971073 
3641.000000	98.966780 
3640.000000	98.960916 
3639.000000	98.960019 
3638.000000	98.962680 
3637.000000	98.961121 
3636.000000	98.948767 
3635.000000	98.926745 
3634.000000	98.902106 
3633.000000	98.880255 
3632.000000	98.860969 
3631.000000	98.843511 
3630.000000	98.834039 
3629.000000	98.837615 
3628.000000	98.846654 
3627.000000	98.853944 
3626.000000	98.857752 
3625.000000	98.856628 
3624.000000	98.851942 
3623.000000	98.849435 
3622.000000	98.855942 
3621.000000	98.874363 
3620.000000	98.898546 
3619.000000	98.914459 
3618.000000	98.913950 
3617.000000	98.904049 
3616.000000	98.897561 
3615.000000	98.901217 
3614.000000	98.910591 
3613.000000	98.913573 
3612.000000	98.902490 
3611.000000	98.882612 
3610.000000	98.866987 
3609.000000	98.864377 
3608.000000	98.870922 
3607.000000	98.875304 
3606.000000	98.871682 
3605.000000	98.862936 
3604.000000	98.854969 
3603.000000	98.852525 
3602.000000	98.857845 
3601.000000	98.870243 
3600.000000	98.885144 
3599.000000	98.895462 
3598.000000	98.895972 
3597.000000	98.887450 
3596.000000	98.876737 
3595.000000	98.871849 
3594.000000	98.874340 
3593.000000	98.878355 
3592.000000	98.877221 
3591.000000	98.868951 
3590.000000	98.857742 
3589.000000	98.851525 
3588.000000	98.854709 
3587.000000	98.863008 
3586.000000	98.871003 
3585.000000	98.878305 
3584.000000	98.885464 
3583.000000	98.891148 
3582.000000	98.894029 
3581.000000	98.893600 
3580.000000	98.889832 
3579.000000	98.884289 
3578.000000	98.881076 
3577.000000	98.884871 
3576.000000	98.896693 
3575.000000	98.912633 
3574.000000	98.926991 
3573.000000	98.935824 
3572.000000	98.937656 
3571.000000	98.931957 
3570.000000	98.919313 
3569.000000	98.903701 
3568.000000	98.891979 
3567.000000	98.887065 
3566.000000	98.885851 
3565.000000	98.885769 
3564.000000	98.887117 
3563.000000	98.890540 
3562.000000	98.895522 
3561.000000	98.899331 
3560.000000	98.898007 
3559.000000	98.890193 
3558.000000	98.880742 
3557.000000	98.878809 
3556.000000	98.890446 
3555.000000	98.911827 
3554.000000	98.929683 
3553.000000	98.930098 
3552.000000	98.909647 
3551.000000	98.878645 
3550.000000	98.852769 
3549.000000	98.842466 
3548.000000	98.849119 
3547.000000	98.866952 
3546.000000	98.887073 
3545.000000	98.902123 
3544.000000	98.909622 
3543.000000	98.911405 
3542.000000	98.910163 
3541.000000	98.906567 
3540.000000	98.899417 
3539.000000	98.887645 
3538.000000	98.871993 
3537.000000	98.855138 
3536.000000	98.841014 
3535.000000	98.833966 
3534.000000	98.836455 
3533.000000	98.846354 
3532.000000	98.857116 
3531.000000	98.862419 
3530.000000	98.860792 
3529.000000	98.854821 
3528.000000	98.846343 
3527.000000	98.835135 
3526.000000	98.823309 
3525.000000	98.818003 
3524.000000	98.826177 
3523.000000	98.846349 
3522.000000	98.868412 
3521.000000	98.882258 
3520.000000	98.884883 
3519.000000	98.879279 
3518.000000	98.869505 
3517.000000	98.858155 
3516.000000	98.846841 
3515.000000	98.837341 
3514.000000	98.831797 
3513.000000	98.832491 
3512.000000	98.840298 
3511.000000	98.852030 
3510.000000	98.860332 
3509.000000	98.859316 
3508.000000	98.850543 
3507.000000	98.841408 
3506.000000	98.837744 
3505.000000	98.839818 
3504.000000	98.844906 
3503.000000	98.851577 
3502.000000	98.860739 
3501.000000	98.873557 
3500.000000	98.888954 
3499.000000	98.902795 
3498.000000	98.909482 
3497.000000	98.906134 
3496.000000	98.895937 
3495.000000	98.885763 
3494.000000	98.879694 
3493.000000	98.876235 
3492.000000	98.872460 
3491.000000	98.868141 
3490.000000	98.864140 
3489.000000	98.859204 
3488.000000	98.851657 
3487.000000	98.843526 
3486.000000	98.839848 
3485.000000	98.843362 
3484.000000	98.851930 
3483.000000	98.861436 
3482.000000	98.869573 
3481.000000	98.876411 
3480.000000	98.882625 
3479.000000	98.887939 
3478.000000	98.890840 
3477.000000	98.890021 
3476.000000	98.886475 
3475.000000	98.883342 
3474.000000	98.882457 
3473.000000	98.881755 
3472.000000	98.877575 
3471.000000	98.869016 
3470.000000	98.858390 
3469.000000	98.847947 
3468.000000	98.838556 
3467.000000	98.831533 
3466.000000	98.829413 
3465.000000	98.833849 
3464.000000	98.843970 
3463.000000	98.856881 
3462.000000	98.868133 
3461.000000	98.872369 
3460.000000	98.866993 
3459.000000	98.856815 
3458.000000	98.852323 
3457.000000	98.860349 
3456.000000	98.877184 
3455.000000	98.892205 
3454.000000	98.896919 
3453.000000	98.889266 
3452.000000	98.871441 
3451.000000	98.848063 
3450.000000	98.826573 
3449.000000	98.815473 
3448.000000	98.818873 
3447.000000	98.833029 
3446.000000	98.850048 
3445.000000	98.864635 
3444.000000	98.875627 
3443.000000	98.882260 
3442.000000	98.882000 
3441.000000	98.873638 
3440.000000	98.861412 
3439.000000	98.853187 
3438.000000	98.852608 
3437.000000	98.853842 
3436.000000	98.846707 
3435.000000	98.827912 
3434.000000	98.805324 
3433.000000	98.790409 
3432.000000	98.787583 
3431.000000	98.792615 
3430.000000	98.800084 
3429.000000	98.809579 
3428.000000	98.823611 
3427.000000	98.840936 
3426.000000	98.854454 
3425.000000	98.857265 
3424.000000	98.850654 
3423.000000	98.844420 
3422.000000	98.847797 
3421.000000	98.860622 
3420.000000	98.875203 
3419.000000	98.885384 
3418.000000	98.890354 
3417.000000	98.890064 
3416.000000	98.882415 
3415.000000	98.867931 
3414.000000	98.853728 
3413.000000	98.847905 
3412.000000	98.850179 
3411.000000	98.851805 
3410.000000	98.845604 
3409.000000	98.833584 
3408.000000	98.823903 
3407.000000	98.822478 
3406.000000	98.829173 
3405.000000	98.840483 
3404.000000	98.853150 
3403.000000	98.864697 
3402.000000	98.872091 
3401.000000	98.872111 
3400.000000	98.864055 
3399.000000	98.851799 
3398.000000	98.841967 
3397.000000	98.839052 
3396.000000	98.842285 
3395.000000	98.847447 
3394.000000	98.851575 
3393.000000	98.855607 
3392.000000	98.862802 
3391.000000	98.874567 
3390.000000	98.887423 
3389.000000	98.894168 
3388.000000	98.889504 
3387.000000	98.875690 
3386.000000	98.862294 
3385.000000	98.858650 
3384.000000	98.865591 
3383.000000	98.874621 
3382.000000	98.875117 
3381.000000	98.862597 
3380.000000	98.841107 
3379.000000	98.819199 
3378.000000	98.803714 
3377.000000	98.796799 
3376.000000	98.797827 
3375.000000	98.806763 
3374.000000	98.823917 
3373.000000	98.845935 
3372.000000	98.864083 
3371.000000	98.869539 
3370.000000	98.861583 
3369.000000	98.849257 
3368.000000	98.843322 
3367.000000	98.846655 
3366.000000	98.853125 
3365.000000	98.855194 
3364.000000	98.850912 
3363.000000	98.843272 
3362.000000	98.835268 
3361.000000	98.828040 
3360.000000	98.822939 
3359.000000	98.821909 
3358.000000	98.824281 
3357.000000	98.825384 
3356.000000	98.820877 
3355.000000	98.811869 
3354.000000	98.803591 
3353.000000	98.799203 
3352.000000	98.796982 
3351.000000	98.793753 
3350.000000	98.789392 
3349.000000	98.787308 
3348.000000	98.791859 
3347.000000	98.805486 
3346.000000	98.826724 
3345.000000	98.850154 
3344.000000	98.869092 
3343.000000	98.879041 
3342.000000	98.878493 
3341.000000	98.868127 
3340.000000	98.852045 
3339.000000	98.839104 
3338.000000	98.838012 
3337.000000	98.847856 
3336.000000	98.856083 
3335.000000	98.849884 
3334.000000	98.829128 
3333.000000	98.805429 
3332.000000	98.789621 
3331.000000	98.783306 
3330.000000	98.782612 
3329.000000	98.786052 
3328.000000	98.796001 
3327.000000	98.813897 
3326.000000	98.836589 
3325.000000	98.857662 
3324.000000	98.871067 
3323.000000	98.873688 
3322.000000	98.866281 
3321.000000	98.853418 
3320.000000	98.841731 
3319.000000	98.835777 
3318.000000	98.834175 
3317.000000	98.831044 
3316.000000	98.823061 
3315.000000	98.814597 
3314.000000	98.813482 
3313.000000	98.821057 
3312.000000	98.828680 
3311.000000	98.825613 
3310.000000	98.809378 
3309.000000	98.787072 
3308.000000	98.767596 
3307.000000	98.754515 
3306.000000	98.746356 
3305.000000	98.742008 
3304.000000	98.744187 
3303.000000	98.756709 
3302.000000	98.778146 
3301.000000	98.799428 
3300.000000	98.810020 
3299.000000	98.807359 
3298.000000	98.798888 
3297.000000	98.794430 
3296.000000	98.797913 
3295.000000	98.806829 
3294.000000	98.816920 
3293.000000	98.825134 
3292.000000	98.829731 
3291.000000	98.830301 
3290.000000	98.827800 
3289.000000	98.823377 
3288.000000	98.817562 
3287.000000	98.811141 
3286.000000	98.805386 
3285.000000	98.800314 
3284.000000	98.794534 
3283.000000	98.788590 
3282.000000	98.786491 
3281.000000	98.791122 
3280.000000	98.799423 
3279.000000	98.805407 
3278.000000	98.807665 
3277.000000	98.810805 
3276.000000	98.818922 
3275.000000	98.830178 
3274.000000	98.838854 
3273.000000	98.840966 
3272.000000	98.837165 
3271.000000	98.831582 
3270.000000	98.828209 
3269.000000	98.827125 
3268.000000	98.824261 
3267.000000	98.816592 
3266.000000	98.807326 
3265.000000	98.803586 
3264.000000	98.808355 
3263.000000	98.816943 
3262.000000	98.822641 
3261.000000	98.823861 
3260.000000	98.824321 
3259.000000	98.827520 
3258.000000	98.832830 
3257.000000	98.836792 
3256.000000	98.837233 
3255.000000	98.835742 
3254.000000	98.835746 
3253.000000	98.837892 
3252.000000	98.838509 
3251.000000	98.834216 
3250.000000	98.826847 
3249.000000	98.821103 
3248.000000	98.817711 
3247.000000	98.812587 
3246.000000	98.804126 
3245.000000	98.797825 
3244.000000	98.800542 
3243.000000	98.812002 
3242.000000	98.825323 
3241.000000	98.835065 
3240.000000	98.841636 
3239.000000	98.847381 
3238.000000	98.851080 
3237.000000	98.848477 
3236.000000	98.838158 
3235.000000	98.825745 
3234.000000	98.820977 
3233.000000	98.829300 
3232.000000	98.845953 
3231.000000	98.859610 
3230.000000	98.862782 
3229.000000	98.857882 
3228.000000	98.852560 
3227.000000	98.850636 
3226.000000	98.849389 
3225.000000	98.844612 
3224.000000	98.835576 
3223.000000	98.824638 
3222.000000	98.814122 
3221.000000	98.805054 
3220.000000	98.798228 
3219.000000	98.795267 
3218.000000	98.798529 
3217.000000	98.809797 
3216.000000	98.828145 
3215.000000	98.848448 
3214.000000	98.862966 
3213.000000	98.866072 
3212.000000	98.858184 
3211.000000	98.844959 
3210.000000	98.832618 
3209.000000	98.824128 
3208.000000	98.819312 
3207.000000	98.817147 
3206.000000	98.816854 
3205.000000	98.817436 
3204.000000	98.817838 
3203.000000	98.817910 
3202.000000	98.818096 
3201.000000	98.817778 
3200.000000	98.815457 
3199.000000	98.811441 
3198.000000	98.808991 
3197.000000	98.811223 
3196.000000	98.817749 
3195.000000	98.825961 
3194.000000	98.834639 
3193.000000	98.844175 
3192.000000	98.853799 
3191.000000	98.861213 
3190.000000	98.865242 
3189.000000	98.866365 
3188.000000	98.863951 
3187.000000	98.855773 
3186.000000	98.842369 
3185.000000	98.829853 
3184.000000	98.825576 
3183.000000	98.830861 
3182.000000	98.839589 
3181.000000	98.843865 
3180.000000	98.840307 
3179.000000	98.831435 
3178.000000	98.822180 
3177.000000	98.815096 
3176.000000	98.808677 
3175.000000	98.800761 
3174.000000	98.793307 
3173.000000	98.791787 
3172.000000	98.798515 
3171.000000	98.808538 
3170.000000	98.814912 
3169.000000	98.817357 
3168.000000	98.822444 
3167.000000	98.834526 
3166.000000	98.849432 
3165.000000	98.858836 
3164.000000	98.858809 
3163.000000	98.851937 
3162.000000	98.842967 
3161.000000	98.835854 
3160.000000	98.834463 
3159.000000	98.841253 
3158.000000	98.852347 
3157.000000	98.857050 
3156.000000	98.847349 
3155.000000	98.828194 
3154.000000	98.814162 
3153.000000	98.813718 
3152.000000	98.819618 
3151.000000	98.818061 
3150.000000	98.805607 
3149.000000	98.793149 
3148.000000	98.793184 
3147.000000	98.806677 
3146.000000	98.823532 
3145.000000	98.833147 
3144.000000	98.832593 
3143.000000	98.826430 
3142.000000	98.821127 
3141.000000	98.819343 
3140.000000	98.818168 
3139.000000	98.813197 
3138.000000	98.804872 
3137.000000	98.799410 
3136.000000	98.801995 
3135.000000	98.810540 
3134.000000	98.818544 
3133.000000	98.823350 
3132.000000	98.828406 
3131.000000	98.836865 
3130.000000	98.846095 
3129.000000	98.850766 
3128.000000	98.849619 
3127.000000	98.846670 
3126.000000	98.845904 
3125.000000	98.846828 
3124.000000	98.845987 
3123.000000	98.841631 
3122.000000	98.835699 
3121.000000	98.831332 
3120.000000	98.829323 
3119.000000	98.827661 
3118.000000	98.824469 
3117.000000	98.820842 
3116.000000	98.820267 
3115.000000	98.825288 
3114.000000	98.835098 
3113.000000	98.846147 
3112.000000	98.854435 
3111.000000	98.857406 
3110.000000	98.854838 
3109.000000	98.848817 
3108.000000	98.842337 
3107.000000	98.837227 
3106.000000	98.833631 
3105.000000	98.831860 
3104.000000	98.833701 
3103.000000	98.840338 
3102.000000	98.849456 
3101.000000	98.856401 
3100.000000	98.858966 
3099.000000	98.859188 
3098.000000	98.859440 
3097.000000	98.858646 
3096.000000	98.854261 
3095.000000	98.846734 
3094.000000	98.839496 
3093.000000	98.834897 
3092.000000	98.832565 
3091.000000	98.832062 
3090.000000	98.834708 
3089.000000	98.841469 
3088.000000	98.850367 
3087.000000	98.857275 
3086.000000	98.858907 
3085.000000	98.854838 
3084.000000	98.847541 
3083.000000	98.840565 
3082.000000	98.835597 
3081.000000	98.831215 
3080.000000	98.826082 
3079.000000	98.823070 
3078.000000	98.827288 
3077.000000	98.838694 
3076.000000	98.849532 
3075.000000	98.852018 
3074.000000	98.847070 
3073.000000	98.842745 
3072.000000	98.844653 
3071.000000	98.850827 
3070.000000	98.856054 
3069.000000	98.858148 
3068.000000	98.858732 
3067.000000	98.859784 
3066.000000	98.861318 
3065.000000	98.861864 
3064.000000	98.859969 
3063.000000	98.855334 
3062.000000	98.849237 
3061.000000	98.843938 
3060.000000	98.841309 
3059.000000	98.841715 
3058.000000	98.844200 
3057.000000	98.847954 
3056.000000	98.853604 
3055.000000	98.862468 
3054.000000	98.873843 
3053.000000	98.883914 
3052.000000	98.889016 
3051.000000	98.889838 
3050.000000	98.890230 
3049.000000	98.891377 
3048.000000	98.889725 
3047.000000	98.882305 
3046.000000	98.871591 
3045.000000	98.862556 
3044.000000	98.856885 
3043.000000	98.853342 
3042.000000	98.852413 
3041.000000	98.855978 
3040.000000	98.862018 
3039.000000	98.864199 
3038.000000	98.859386 
3037.000000	98.852853 
3036.000000	98.852755 
3035.000000	98.860662 
3034.000000	98.870347 
3033.000000	98.875706 
3032.000000	98.877296 
3031.000000	98.880193 
3030.000000	98.887131 
3029.000000	98.895342 
3028.000000	98.899782 
3027.000000	98.898089 
3026.000000	98.891809 
3025.000000	98.883448 
3024.000000	98.873992 
3023.000000	98.864365 
3022.000000	98.858215 
3021.000000	98.860646 
3020.000000	98.872714 
3019.000000	98.887761 
3018.000000	98.894937 
3017.000000	98.887776 
3016.000000	98.870263 
3015.000000	98.854263 
3014.000000	98.850035 
3013.000000	98.857767 
3012.000000	98.867714 
3011.000000	98.868584 
3010.000000	98.856455 
3009.000000	98.836820 
3008.000000	98.819837 
3007.000000	98.813746 
3006.000000	98.820508 
3005.000000	98.835320 
3004.000000	98.850231 
3003.000000	98.859673 
3002.000000	98.863027 
3001.000000	98.862286 
3000.000000	98.858566 
2999.000000	98.851810 
2998.000000	98.842597 
2997.000000	98.832623 
2996.000000	98.824089 
2995.000000	98.819708 
2994.000000	98.821989 
2993.000000	98.830365 
2992.000000	98.839801 
2991.000000	98.844900 
2990.000000	98.845485 
2989.000000	98.846030 
2988.000000	98.849391 
2987.000000	98.853657 
2986.000000	98.855919 
2985.000000	98.856681 
2984.000000	98.858618 
2983.000000	98.862148 
2982.000000	98.864038 
2981.000000	98.860267 
2980.000000	98.849846 
2979.000000	98.836225 
2978.000000	98.825095 
2977.000000	98.820081 
2976.000000	98.820530 
2975.000000	98.824012 
2974.000000	98.830072 
2973.000000	98.839598 
2972.000000	98.851040 
2971.000000	98.859991 
2970.000000	98.863236 
2969.000000	98.860818 
2968.000000	98.853125 
2967.000000	98.838832 
2966.000000	98.818243 
2965.000000	98.796871 
2964.000000	98.782422 
2963.000000	98.778096 
2962.000000	98.780602 
2961.000000	98.784984 
2960.000000	98.789742 
2959.000000	98.796692 
2958.000000	98.806778 
2957.000000	98.817160 
2956.000000	98.823117 
2955.000000	98.822754 
2954.000000	98.819058 
2953.000000	98.816317 
2952.000000	98.815337 
2951.000000	98.813604 
2950.000000	98.809441 
2949.000000	98.803622 
2948.000000	98.796790 
2947.000000	98.788227 
2946.000000	98.778583 
2945.000000	98.771509 
2944.000000	98.770409 
2943.000000	98.774602 
2942.000000	98.779957 
2941.000000	98.782315 
2940.000000	98.779346 
2939.000000	98.770919 
2938.000000	98.759179 
2937.000000	98.746949 
2936.000000	98.734991 
2935.000000	98.722679 
2934.000000	98.712480 
2933.000000	98.710380 
2932.000000	98.718579 
2931.000000	98.729923 
2930.000000	98.733919 
2929.000000	98.727670 
2928.000000	98.717630 
2927.000000	98.710979 
2926.000000	98.709472 
2925.000000	98.711654 
2924.000000	98.716299 
2923.000000	98.721435 
2922.000000	98.723819 
2921.000000	98.722908 
2920.000000	98.723443 
2919.000000	98.730896 
2918.000000	98.744550 
2917.000000	98.757147 
2916.000000	98.761545 
2915.000000	98.756887 
2914.000000	98.748900 
2913.000000	98.745352 
2912.000000	98.750497 
2911.000000	98.761997 
2910.000000	98.772436 
2909.000000	98.774725 
2908.000000	98.767256 
2907.000000	98.754424 
2906.000000	98.742791 
2905.000000	98.736985 
2904.000000	98.738433 
2903.000000	98.746161 
2902.000000	98.757418 
2901.000000	98.768302 
2900.000000	98.774607 
2899.000000	98.774825 
2898.000000	98.771305 
2897.000000	98.767953 
2896.000000	98.766500 
2895.000000	98.765941 
2894.000000	98.765785 
2893.000000	98.768322 
2892.000000	98.776247 
2891.000000	98.788591 
2890.000000	98.800420 
2889.000000	98.806874 
2888.000000	98.806956 
2887.000000	98.803830 
2886.000000	98.802379 
2885.000000	98.806030 
2884.000000	98.814271 
2883.000000	98.822489 
2882.000000	98.825216 
2881.000000	98.820669 
2880.000000	98.812131 
2879.000000	98.804813 
2878.000000	98.801763 
2877.000000	98.802692 
2876.000000	98.805632 
2875.000000	98.808585 
2874.000000	98.809803 
2873.000000	98.807821 
2872.000000	98.802299 
2871.000000	98.795066 
2870.000000	98.789678 
2869.000000	98.789023 
2868.000000	98.792733 
2867.000000	98.797271 
2866.000000	98.799273 
2865.000000	98.798889 
2864.000000	98.799218 
2863.000000	98.802014 
2862.000000	98.804469 
2861.000000	98.801063 
2860.000000	98.789003 
2859.000000	98.771561 
2858.000000	98.755946 
2857.000000	98.747983 
2856.000000	98.748586 
2855.000000	98.754296 
2854.000000	98.760072 
2853.000000	98.762125 
2852.000000	98.760073 
2851.000000	98.757815 
2850.000000	98.761135 
2849.000000	98.772528 
2848.000000	98.788233 
2847.000000	98.801544 
2846.000000	98.808918 
2845.000000	98.811413 
2844.000000	98.810662 
2843.000000	98.806299 
2842.000000	98.798813 
2841.000000	98.792732 
2840.000000	98.794157 
2839.000000	98.805087 
2838.000000	98.821690 
2837.000000	98.837972 
2836.000000	98.849852 
2835.000000	98.856095 
2834.000000	98.857418 
2833.000000	98.855707 
2832.000000	98.853245 
2831.000000	98.851791 
2830.000000	98.852321 
2829.000000	98.855344 
2828.000000	98.860591 
2827.000000	98.866442 
2826.000000	98.870619 
2825.000000	98.871884 
2824.000000	98.870527 
2823.000000	98.867282 
2822.000000	98.862662 
2821.000000	98.857557 
2820.000000	98.853377 
2819.000000	98.850829 
2818.000000	98.849109 
2817.000000	98.847020 
2816.000000	98.844668 
2815.000000	98.843599 
2814.000000	98.845284 
2813.000000	98.849434 
2812.000000	98.853417 
2811.000000	98.853556 
2810.000000	98.848135 
2809.000000	98.839757 
2808.000000	98.833927 
2807.000000	98.834260 
2806.000000	98.839316 
2805.000000	98.844724 
2804.000000	98.847844 
2803.000000	98.849266 
2802.000000	98.850285 
2801.000000	98.850853 
2800.000000	98.850887 
2799.000000	98.852128 
2798.000000	98.856807 
2797.000000	98.864379 
2796.000000	98.870820 
2795.000000	98.871851 
2794.000000	98.866534 
2793.000000	98.857607 
2792.000000	98.848800 
2791.000000	98.842180 
2790.000000	98.837674 
2789.000000	98.834602 
2788.000000	98.833321 
2787.000000	98.835101 
2786.000000	98.840100 
2785.000000	98.845770 
2784.000000	98.848173 
2783.000000	98.845397 
2782.000000	98.839578 
2781.000000	98.835489 
2780.000000	98.837299 
2779.000000	98.846054 
2778.000000	98.858779 
2777.000000	98.869703 
2776.000000	98.873921 
2775.000000	98.871385 
2774.000000	98.866751 
2773.000000	98.864351 
2772.000000	98.864019 
2771.000000	98.862990 
2770.000000	98.860797 
2769.000000	98.860081 
2768.000000	98.862475 
2767.000000	98.865810 
2766.000000	98.866432 
2765.000000	98.863295 
2764.000000	98.858967 
2763.000000	98.857084 
2762.000000	98.858896 
2761.000000	98.861745 
2760.000000	98.861427 
2759.000000	98.857400 
2758.000000	98.855114 
2757.000000	98.860846 
2756.000000	98.873785 
2755.000000	98.885556 
2754.000000	98.888691 
2753.000000	98.883428 
2752.000000	98.874922 
2751.000000	98.866392 
2750.000000	98.857912 
2749.000000	98.850125 
2748.000000	98.845312 
2747.000000	98.844519 
2746.000000	98.846624 
2745.000000	98.851032 
2744.000000	98.858808 
2743.000000	98.869645 
2742.000000	98.879538 
2741.000000	98.883506 
2740.000000	98.880333 
2739.000000	98.873391 
2738.000000	98.866855 
2737.000000	98.862040 
2736.000000	98.857750 
2735.000000	98.853688 
2734.000000	98.852562 
2733.000000	98.857760 
2732.000000	98.868583 
2731.000000	98.878845 
2730.000000	98.881566 
2729.000000	98.875306 
2728.000000	98.865291 
2727.000000	98.858585 
2726.000000	98.858853 
2725.000000	98.865154 
2724.000000	98.873827 
2723.000000	98.880856 
2722.000000	98.883694 
2721.000000	98.882314 
2720.000000	98.878530 
2719.000000	98.873940 
2718.000000	98.868918 
2717.000000	98.863838 
2716.000000	98.860171 
2715.000000	98.858847 
2714.000000	98.857608 
2713.000000	98.851879 
2712.000000	98.840177 
2711.000000	98.828475 
2710.000000	98.826918 
2709.000000	98.840052 
2708.000000	98.860647 
2707.000000	98.875112 
2706.000000	98.875898 
2705.000000	98.867513 
2704.000000	98.859852 
2703.000000	98.857576 
2702.000000	98.857729 
2701.000000	98.856134 
2700.000000	98.852825 
2699.000000	98.850528 
2698.000000	98.850302 
2697.000000	98.850746 
2696.000000	98.850654 
2695.000000	98.850654 
2694.000000	98.851824 
2693.000000	98.853786 
2692.000000	98.855043 
2691.000000	98.854982 
2690.000000	98.854558 
2689.000000	98.854465 
2688.000000	98.853575 
2687.000000	98.850684 
2686.000000	98.847533 
2685.000000	98.847973 
2684.000000	98.853319 
2683.000000	98.860311 
2682.000000	98.865115 
2681.000000	98.867463 
2680.000000	98.868901 
2679.000000	98.868772 
2678.000000	98.865271 
2677.000000	98.859735 
2676.000000	98.856097 
2675.000000	98.855331 
2674.000000	98.853962 
2673.000000	98.849778 
2672.000000	98.846195 
2671.000000	98.848357 
2670.000000	98.856551 
2669.000000	98.865942 
2668.000000	98.872049 
2667.000000	98.874299 
2666.000000	98.874692 
2665.000000	98.875085 
2664.000000	98.876076 
2663.000000	98.877107 
2662.000000	98.877069 
2661.000000	98.875153 
2660.000000	98.870995 
2659.000000	98.864060 
2658.000000	98.854201 
2657.000000	98.843717 
2656.000000	98.837350 
2655.000000	98.838371 
2654.000000	98.844989 
2653.000000	98.851971 
2652.000000	98.855247 
2651.000000	98.853778 
2650.000000	98.848146 
2649.000000	98.839862 
2648.000000	98.832007 
2647.000000	98.828067 
2646.000000	98.829130 
2645.000000	98.833434 
2644.000000	98.838780 
2643.000000	98.843647 
2642.000000	98.845756 
2641.000000	98.842111 
2640.000000	98.832401 
2639.000000	98.821188 
2638.000000	98.814863 
2637.000000	98.816230 
2636.000000	98.822601 
2635.000000	98.828712 
2634.000000	98.831076 
2633.000000	98.830250 
2632.000000	98.829738 
2631.000000	98.832550 
2630.000000	98.838431 
2629.000000	98.844400 
2628.000000	98.847462 
2627.000000	98.845841 
2626.000000	98.838147 
2625.000000	98.823757 
2624.000000	98.805445 
2623.000000	98.790228 
2622.000000	98.785317 
2621.000000	98.792484 
2620.000000	98.806666 
2619.000000	98.819913 
2618.000000	98.826680 
2617.000000	98.826384 
2616.000000	98.822392 
2615.000000	98.818975 
2614.000000	98.818559 
2613.000000	98.820992 
2612.000000	98.824815 
2611.000000	98.829232 
2610.000000	98.835350 
2609.000000	98.845399 
2608.000000	98.859447 
2607.000000	98.872295 
2606.000000	98.875619 
2605.000000	98.865529 
2604.000000	98.847281 
2603.000000	98.830178 
2602.000000	98.818502 
2601.000000	98.810104 
2600.000000	98.802904 
2599.000000	98.798114 
2598.000000	98.796006 
2597.000000	98.793573 
2596.000000	98.789851 
2595.000000	98.789951 
2594.000000	98.799259 
2593.000000	98.815360 
2592.000000	98.829834 
2591.000000	98.837009 
2590.000000	98.837266 
2589.000000	98.833318 
2588.000000	98.828493 
2587.000000	98.828496 
2586.000000	98.838534 
2585.000000	98.855498 
2584.000000	98.866878 
2583.000000	98.861523 
2582.000000	98.840531 
2581.000000	98.815671 
2580.000000	98.798436 
2579.000000	98.792128 
2578.000000	98.792637 
2577.000000	98.794138 
2576.000000	98.794121 
2575.000000	98.794154 
2574.000000	98.795848 
2573.000000	98.796825 
2572.000000	98.793245 
2571.000000	98.786995 
2570.000000	98.786750 
2569.000000	98.798577 
2568.000000	98.817012 
2567.000000	98.828891 
2566.000000	98.826043 
2565.000000	98.812410 
2564.000000	98.799657 
2563.000000	98.798154 
2562.000000	98.810723 
2561.000000	98.830603 
2560.000000	98.844476 
2559.000000	98.841476 
2558.000000	98.822484 
2557.000000	98.799851 
2556.000000	98.786563 
2555.000000	98.786286 
2554.000000	98.793674 
2553.000000	98.801195 
2552.000000	98.803781 
2551.000000	98.799903 
2550.000000	98.792404 
2549.000000	98.787888 
2548.000000	98.791358 
2547.000000	98.800155 
2546.000000	98.805701 
2545.000000	98.802689 
2544.000000	98.794533 
2543.000000	98.788091 
2542.000000	98.785066 
2541.000000	98.781577 
2540.000000	98.775791 
2539.000000	98.772834 
2538.000000	98.780085 
2537.000000	98.797991 
2536.000000	98.816924 
2535.000000	98.824561 
2534.000000	98.817570 
2533.000000	98.805670 
2532.000000	98.802243 
2531.000000	98.810144 
2530.000000	98.818971 
2529.000000	98.818024 
2528.000000	98.809222 
2527.000000	98.803394 
2526.000000	98.805641 
2525.000000	98.810146 
2524.000000	98.810251 
2523.000000	98.807561 
2522.000000	98.807266 
2521.000000	98.808937 
2520.000000	98.807629 
2519.000000	98.802342 
2518.000000	98.798101 
2517.000000	98.799649 
2516.000000	98.807038 
2515.000000	98.817418 
2514.000000	98.827116 
2513.000000	98.831376 
2512.000000	98.826280 
2511.000000	98.812991 
2510.000000	98.797780 
2509.000000	98.786742 
2508.000000	98.782323 
2507.000000	98.784430 
2506.000000	98.790730 
2505.000000	98.794997 
2504.000000	98.790350 
2503.000000	98.777783 
2502.000000	98.768267 
2501.000000	98.772540 
2500.000000	98.790308 
2499.000000	98.812192 
2498.000000	98.829984 
2497.000000	98.841635 
2496.000000	98.848501 
2495.000000	98.852551 
2494.000000	98.855773 
2493.000000	98.858148 
2492.000000	98.856256 
2491.000000	98.847748 
2490.000000	98.837031 
2489.000000	98.831694 
2488.000000	98.832125 
2487.000000	98.829777 
2486.000000	98.818742 
2485.000000	98.805147 
2484.000000	98.800622 
2483.000000	98.808586 
2482.000000	98.821565 
2481.000000	98.831514 
2480.000000	98.838461 
2479.000000	98.847742 
2478.000000	98.861763 
2477.000000	98.876333 
2476.000000	98.883551 
2475.000000	98.877007 
2474.000000	98.855683 
2473.000000	98.824947 
2472.000000	98.793909 
2471.000000	98.771053 
2470.000000	98.761919 
2469.000000	98.769148 
2468.000000	98.791163 
2467.000000	98.819050 
2466.000000	98.837712 
2465.000000	98.835291 
2464.000000	98.813563 
2463.000000	98.787378 
2462.000000	98.772384 
2461.000000	98.773372 
2460.000000	98.783595 
2459.000000	98.792516 
2458.000000	98.793317 
2457.000000	98.786260 
2456.000000	98.778608 
2455.000000	98.780622 
2454.000000	98.797813 
2453.000000	98.825227 
2452.000000	98.850217 
2451.000000	98.861535 
2450.000000	98.855539 
2449.000000	98.835391 
2448.000000	98.807748 
2447.000000	98.780972 
2446.000000	98.762922 
2445.000000	98.756460 
2444.000000	98.756859 
2443.000000	98.755916 
2442.000000	98.750143 
2441.000000	98.745042 
2440.000000	98.750682 
2439.000000	98.771779 
2438.000000	98.800768 
2437.000000	98.821338 
2436.000000	98.821206 
2435.000000	98.802918 
2434.000000	98.781241 
2433.000000	98.769581 
2432.000000	98.769633 
2431.000000	98.774129 
2430.000000	98.776931 
2429.000000	98.778221 
2428.000000	98.781122 
2427.000000	98.786423 
2426.000000	98.791808 
2425.000000	98.795105 
2424.000000	98.796878 
2423.000000	98.799053 
2422.000000	98.800937 
2421.000000	98.797967 
2420.000000	98.786732 
2419.000000	98.771525 
2418.000000	98.762978 
2417.000000	98.767488 
2416.000000	98.779452 
2415.000000	98.787718 
2414.000000	98.789948 
2413.000000	98.796543 
2412.000000	98.817321 
2411.000000	98.846532 
2410.000000	98.865533 
2409.000000	98.861474 
2408.000000	98.840748 
2407.000000	98.821796 
2406.000000	98.816630 
2405.000000	98.821949 
2404.000000	98.826900 
2403.000000	98.825207 
2402.000000	98.818652 
2401.000000	98.812652 
2400.000000	98.811635 
2399.000000	98.817027 
2398.000000	98.826498 
2397.000000	98.835279 
2396.000000	98.840302 
2395.000000	98.842964 
2394.000000	98.846343 
2393.000000	98.850529 
2392.000000	98.852854 
2391.000000	98.852312 
2390.000000	98.851277 
2389.000000	98.852405 
2388.000000	98.855413 
2387.000000	98.857007 
2386.000000	98.852932 
2385.000000	98.841266 
2384.000000	98.826380 
2383.000000	98.818990 
2382.000000	98.828176 
2381.000000	98.851354 
2380.000000	98.874580 
2379.000000	98.884935 
2378.000000	98.880799 
2377.000000	98.869316 
2376.000000	98.858210 
2375.000000	98.853277 
2374.000000	98.859426 
2373.000000	98.877078 
2372.000000	98.898747 
2371.000000	98.914115 
2370.000000	98.917785 
2369.000000	98.909223 
2368.000000	98.889934 
2367.000000	98.866203 
2366.000000	98.849568 
2365.000000	98.846797 
2364.000000	98.853397 
2363.000000	98.862259 
2362.000000	98.872278 
2361.000000	98.878698 
2360.000000	98.864560 
2359.000000	98.823078 
2358.000000	98.779621 
2357.000000	98.769618 
2356.000000	98.800405 
2355.000000	98.845965 
2354.000000	98.880045 
2353.000000	98.892642 
2352.000000	98.885253 
2351.000000	98.866177 
2350.000000	98.845862 
2349.000000	98.832468 
2348.000000	98.825843 
2347.000000	98.821025 
2346.000000	98.815898 
2345.000000	98.811186 
2344.000000	98.805814 
2343.000000	98.793525 
2342.000000	98.782975 
2341.000000	98.794040 
2340.000000	98.832015 
2339.000000	98.876134 
2338.000000	98.897624 
2337.000000	98.887009 
2336.000000	98.854649 
2335.000000	98.818357 
2334.000000	98.789068 
2333.000000	98.770425 
2332.000000	98.755634 
2331.000000	98.739182 
2330.000000	98.720348 
2329.000000	98.708476 
2328.000000	98.704066 
2327.000000	98.699363 
2326.000000	98.686854 
2325.000000	98.670359 
2324.000000	98.661593 
2323.000000	98.666630 
2322.000000	98.683014 
2321.000000	98.705487 
2320.000000	98.730549 
2319.000000	98.755574 
2318.000000	98.775127 
2317.000000	98.788236 
2316.000000	98.797027 
2315.000000	98.806418 
2314.000000	98.813667 
2313.000000	98.812933 
2312.000000	98.799647 
2311.000000	98.782170 
2310.000000	98.773913 
2309.000000	98.781943 
2308.000000	98.795456 
2307.000000	98.797145 
2306.000000	98.778726 
2305.000000	98.749893 
2304.000000	98.726512 
2303.000000	98.717613 
2302.000000	98.718352 
2301.000000	98.717264 
2300.000000	98.704709 
2299.000000	98.682912 
2298.000000	98.664648 
2297.000000	98.664469 
2296.000000	98.683924 
2295.000000	98.710542 
2294.000000	98.729356 
2293.000000	98.735991 
2292.000000	98.734772 
2291.000000	98.728861 
2290.000000	98.717099 
2289.000000	98.700388 
2288.000000	98.685825 
2287.000000	98.680951 
2286.000000	98.686501 
2285.000000	98.695985 
2284.000000	98.701996 
2283.000000	98.701577 
2282.000000	98.698212 
2281.000000	98.699433 
2280.000000	98.710505 
2279.000000	98.727350 
2278.000000	98.737544 
2277.000000	98.731995 
2276.000000	98.715825 
2275.000000	98.704340 
2274.000000	98.706553 
2273.000000	98.716100 
2272.000000	98.720529 
2271.000000	98.717057 
2270.000000	98.714051 
2269.000000	98.717918 
2268.000000	98.724490 
2267.000000	98.726245 
2266.000000	98.722983 
2265.000000	98.720230 
2264.000000	98.719303 
2263.000000	98.715264 
2262.000000	98.705094 
2261.000000	98.692496 
2260.000000	98.682854 
2259.000000	98.677141 
2258.000000	98.673534 
2257.000000	98.671742 
2256.000000	98.673165 
2255.000000	98.678908 
2254.000000	98.689885 
2253.000000	98.706604 
2252.000000	98.725586 
2251.000000	98.738470 
2250.000000	98.738323 
2249.000000	98.726897 
2248.000000	98.712588 
2247.000000	98.702824 
2246.000000	98.700894 
2245.000000	98.708156 
2244.000000	98.722477 
2243.000000	98.734149 
2242.000000	98.731302 
2241.000000	98.714369 
2240.000000	98.699481 
2239.000000	98.700018 
2238.000000	98.708110 
2237.000000	98.703068 
2236.000000	98.678093 
2235.000000	98.649770 
2234.000000	98.638613 
2233.000000	98.648044 
2232.000000	98.666064 
2231.000000	98.679002 
2230.000000	98.676688 
2229.000000	98.653464 
2228.000000	98.617698 
2227.000000	98.596627 
2226.000000	98.615510 
2225.000000	98.666815 
2224.000000	98.711174 
2223.000000	98.717215 
2222.000000	98.694111 
2221.000000	98.678667 
2220.000000	98.695668 
2219.000000	98.737112 
2218.000000	98.774754 
2217.000000	98.784827 
2216.000000	98.763854 
2215.000000	98.728237 
2214.000000	98.699630 
2213.000000	98.687231 
2212.000000	98.684204 
2211.000000	98.681936 
2210.000000	98.682382 
2209.000000	98.691808 
2208.000000	98.707433 
2207.000000	98.717425 
2206.000000	98.712173 
2205.000000	98.690980 
2204.000000	98.661412 
2203.000000	98.637401 
2202.000000	98.632969 
2201.000000	98.648910 
2200.000000	98.668631 
2199.000000	98.676853 
2198.000000	98.679362 
2197.000000	98.691774 
2196.000000	98.709346 
2195.000000	98.703967 
2194.000000	98.659166 
2193.000000	98.596960 
2192.000000	98.558005 
2191.000000	98.559414 
2190.000000	98.582047 
2189.000000	98.596322 
2188.000000	98.591513 
2187.000000	98.579418 
2186.000000	98.578634 
2185.000000	98.600995 
2184.000000	98.648045 
2183.000000	98.711525 
2182.000000	98.772936 
2181.000000	98.806977 
2180.000000	98.795203 
2179.000000	98.742622 
2178.000000	98.681182 
2177.000000	98.652316 
2176.000000	98.677026 
2175.000000	98.737374 
2174.000000	98.789280 
2173.000000	98.799260 
2172.000000	98.772621 
2171.000000	98.743856 
2170.000000	98.738783 
2169.000000	98.751661 
2168.000000	98.763629 
2167.000000	98.773687 
2166.000000	98.793763 
2165.000000	98.814981 
2164.000000	98.804596 
2163.000000	98.751460 
2162.000000	98.695974 
2161.000000	98.692259 
2160.000000	98.744357 
2159.000000	98.802375 
2158.000000	98.823611 
2157.000000	98.808739 
2156.000000	98.775442 
2155.000000	98.732178 
2154.000000	98.688120 
2153.000000	98.663922 
2152.000000	98.676760 
2151.000000	98.720902 
2150.000000	98.769173 
2149.000000	98.791181 
2148.000000	98.772809 
2147.000000	98.726267 
2146.000000	98.683001 
2145.000000	98.669358 
2144.000000	98.684238 
2143.000000	98.704063 
2142.000000	98.709801 
2141.000000	98.704106 
2140.000000	98.702633 
2139.000000	98.715623 
2138.000000	98.740752 
2137.000000	98.768369 
2136.000000	98.789493 
2135.000000	98.800948 
2134.000000	98.805686 
2133.000000	98.808291 
2132.000000	98.810062 
2131.000000	98.808645 
2130.000000	98.800819 
2129.000000	98.785006 
2128.000000	98.764299 
2127.000000	98.749350 
2126.000000	98.753927 
2125.000000	98.781206 
2124.000000	98.815521 
2123.000000	98.834262 
2122.000000	98.829068 
2121.000000	98.810987 
2120.000000	98.794178 
2119.000000	98.779846 
2118.000000	98.759285 
2117.000000	98.728923 
2116.000000	98.697816 
2115.000000	98.680247 
2114.000000	98.683257 
2113.000000	98.702461 
2112.000000	98.729850 
2111.000000	98.762925 
2110.000000	98.801411 
2109.000000	98.835778 
2108.000000	98.848378 
2107.000000	98.832251 
2106.000000	98.802316 
2105.000000	98.779133 
2104.000000	98.765237 
2103.000000	98.748149 
2102.000000	98.724883 
2101.000000	98.709149 
2100.000000	98.710002 
2099.000000	98.716288 
2098.000000	98.712412 
2097.000000	98.702766 
2096.000000	98.708988 
2095.000000	98.743007 
2094.000000	98.790394 
2093.000000	98.822573 
2092.000000	98.822885 
2091.000000	98.800109 
2090.000000	98.778003 
2089.000000	98.771323 
2088.000000	98.772106 
2087.000000	98.761995 
2086.000000	98.735907 
2085.000000	98.707467 
2084.000000	98.690999 
2083.000000	98.686306 
2082.000000	98.685276 
2081.000000	98.685819 
2080.000000	98.691964 
2079.000000	98.704150 
2078.000000	98.717169 
2077.000000	98.726934 
2076.000000	98.733533 
2075.000000	98.737445 
2074.000000	98.736905 
2073.000000	98.729452 
2072.000000	98.713710 
2071.000000	98.691098 
2070.000000	98.669971 
2069.000000	98.666755 
2068.000000	98.695853 
2067.000000	98.753876 
2066.000000	98.814755 
2065.000000	98.844767 
2064.000000	98.827920 
2063.000000	98.778202 
2062.000000	98.726930 
2061.000000	98.699207 
2060.000000	98.701672 
2059.000000	98.728407 
2058.000000	98.770378 
2057.000000	98.813979 
2056.000000	98.836916 
2055.000000	98.817739 
2054.000000	98.754092 
2053.000000	98.668049 
2052.000000	98.592162 
2051.000000	98.552902 
2050.000000	98.562500 
2049.000000	98.613218 
2048.000000	98.678326 
2047.000000	98.730949 
2046.000000	98.764114 
2045.000000	98.784967 
2044.000000	98.792874 
2043.000000	98.777636 
2042.000000	98.742808 
2041.000000	98.714632 
2040.000000	98.714213 
2039.000000	98.730431 
2038.000000	98.734609 
2037.000000	98.716913 
2036.000000	98.696429 
2035.000000	98.696183 
2034.000000	98.719043 
2033.000000	98.750040 
2032.000000	98.774578 
2031.000000	98.789961 
2030.000000	98.800870 
2029.000000	98.807007 
2028.000000	98.798981 
2027.000000	98.770622 
2026.000000	98.733331 
2025.000000	98.710195 
2024.000000	98.714247 
2023.000000	98.740143 
2022.000000	98.776479 
2021.000000	98.811801 
2020.000000	98.825752 
2019.000000	98.794404 
2018.000000	98.721324 
2017.000000	98.652759 
2016.000000	98.637374 
2015.000000	98.671477 
2014.000000	98.703372 
2013.000000	98.690355 
2012.000000	98.638523 
2011.000000	98.585948 
2010.000000	98.562535 
2009.000000	98.574961 
2008.000000	98.617245 
2007.000000	98.678450 
2006.000000	98.737770 
2005.000000	98.766981 
2004.000000	98.752492 
2003.000000	98.712423 
2002.000000	98.682457 
2001.000000	98.681384 
2000.000000	98.693880 
1999.000000	98.691857 
1998.000000	98.666443 
1997.000000	98.632149 
1996.000000	98.605210 
1995.000000	98.588881 
1994.000000	98.580128 
1993.000000	98.579970 
1992.000000	98.593074 
1991.000000	98.623892 
1990.000000	98.674351 
1989.000000	98.735722 
1988.000000	98.781912 
1987.000000	98.783715 
1986.000000	98.736858 
1985.000000	98.669041 
1984.000000	98.614830 
1983.000000	98.591802 
1982.000000	98.604778 
1981.000000	98.656993 
1980.000000	98.740973 
1979.000000	98.825872 
1978.000000	98.874308 
1977.000000	98.878865 
1976.000000	98.866351 
1975.000000	98.859085 
1974.000000	98.849262 
1973.000000	98.817893 
1972.000000	98.764943 
1971.000000	98.710107 
1970.000000	98.669277 
1969.000000	98.639276 
1968.000000	98.607174 
1967.000000	98.572070 
1966.000000	98.552720 
1965.000000	98.567553 
1964.000000	98.609014 
1963.000000	98.646607 
1962.000000	98.658806 
1961.000000	98.657128 
1960.000000	98.670089 
1959.000000	98.705280 
1958.000000	98.740189 
1957.000000	98.752103 
1956.000000	98.745413 
1955.000000	98.742176 
1954.000000	98.752716 
1953.000000	98.764934 
1952.000000	98.762307 
1951.000000	98.744709 
1950.000000	98.728484 
1949.000000	98.728493 
1948.000000	98.743051 
1947.000000	98.757581 
1946.000000	98.761605 
1945.000000	98.760116 
1944.000000	98.766676 
1943.000000	98.784886 
1942.000000	98.799950 
1941.000000	98.795240 
1940.000000	98.775111 
1939.000000	98.761704 
1938.000000	98.769221 
1937.000000	98.786599 
1936.000000	98.790225 
1935.000000	98.771901 
1934.000000	98.746156 
1933.000000	98.730551 
1932.000000	98.727336 
1931.000000	98.727742 
1930.000000	98.726521 
1929.000000	98.723523 
1928.000000	98.717208 
1927.000000	98.706868 
1926.000000	98.698293 
1925.000000	98.699136 
1924.000000	98.707623 
1923.000000	98.713682 
1922.000000	98.712698 
1921.000000	98.710185 
1920.000000	98.711534 
1919.000000	98.715703 
1918.000000	98.719530 
1917.000000	98.721549 
1916.000000	98.721307 
1915.000000	98.721479 
1914.000000	98.728979 
1913.000000	98.746752 
1912.000000	98.763443 
1911.000000	98.760442 
1910.000000	98.734542 
1909.000000	98.705723 
1908.000000	98.696304 
1907.000000	98.709477 
1906.000000	98.732086 
1905.000000	98.749728 
1904.000000	98.754156 
1903.000000	98.745786 
1902.000000	98.735325 
1901.000000	98.735784 
1900.000000	98.747678 
1899.000000	98.757994 
1898.000000	98.757114 
1897.000000	98.750628 
1896.000000	98.748070 
1895.000000	98.747535 
1894.000000	98.742016 
1893.000000	98.735156 
1892.000000	98.738247 
1891.000000	98.753404 
1890.000000	98.768855 
1889.000000	98.773672 
1888.000000	98.771411 
1887.000000	98.772779 
1886.000000	98.779743 
1885.000000	98.783202 
1884.000000	98.774602 
1883.000000	98.756757 
1882.000000	98.741963 
1881.000000	98.739074 
1880.000000	98.744352 
1879.000000	98.746473 
1878.000000	98.738698 
1877.000000	98.724821 
1876.000000	98.713819 
1875.000000	98.711279 
1874.000000	98.717077 
1873.000000	98.726661 
1872.000000	98.731952 
1871.000000	98.725989 
1870.000000	98.712497 
1869.000000	98.707786 
1868.000000	98.722114 
1867.000000	98.745052 
1866.000000	98.758862 
1865.000000	98.756956 
1864.000000	98.747302 
1863.000000	98.742074 
1862.000000	98.745919 
1861.000000	98.754214 
1860.000000	98.760597 
1859.000000	98.764268 
1858.000000	98.768800 
1857.000000	98.774574 
1856.000000	98.776056 
1855.000000	98.769194 
1854.000000	98.758148 
1853.000000	98.750239 
1852.000000	98.745871 
1851.000000	98.739671 
1850.000000	98.729391 
1849.000000	98.719683 
1848.000000	98.715197 
1847.000000	98.714006 
1846.000000	98.711110 
1845.000000	98.705541 
1844.000000	98.700038 
1843.000000	98.695345 
1842.000000	98.691503 
1841.000000	98.689548 
1840.000000	98.690653 
1839.000000	98.695856 
1838.000000	98.705944 
1837.000000	98.721880 
1836.000000	98.742100 
1835.000000	98.759531 
1834.000000	98.764336 
1833.000000	98.752625 
1832.000000	98.733419 
1831.000000	98.724389 
1830.000000	98.734148 
1829.000000	98.750504 
1828.000000	98.757109 
1827.000000	98.752267 
1826.000000	98.744305 
1825.000000	98.739392 
1824.000000	98.735495 
1823.000000	98.729724 
1822.000000	98.727145 
1821.000000	98.734805 
1820.000000	98.749875 
1819.000000	98.758421 
1818.000000	98.750108 
1817.000000	98.731209 
1816.000000	98.716516 
1815.000000	98.713382 
1814.000000	98.719455 
1813.000000	98.730125 
1812.000000	98.742055 
1811.000000	98.750043 
1810.000000	98.749794 
1809.000000	98.743304 
1808.000000	98.734592 
1807.000000	98.725118 
1806.000000	98.716812 
1805.000000	98.713592 
1804.000000	98.716062 
1803.000000	98.719161 
1802.000000	98.718442 
1801.000000	98.714860 
1800.000000	98.710786 
1799.000000	98.704670 
1798.000000	98.696612 
1797.000000	98.691627 
1796.000000	98.693201 
1795.000000	98.698810 
1794.000000	98.703956 
1793.000000	98.707494 
1792.000000	98.710327 
1791.000000	98.710799 
1790.000000	98.709620 
1789.000000	98.709748 
1788.000000	98.709950 
1787.000000	98.705302 
1786.000000	98.693925 
1785.000000	98.679917 
1784.000000	98.666986 
1783.000000	98.655080 
1782.000000	98.645000 
1781.000000	98.639701 
1780.000000	98.640631 
1779.000000	98.643670 
1778.000000	98.645771 
1777.000000	98.649456 
1776.000000	98.657758 
1775.000000	98.668089 
1774.000000	98.671590 
1773.000000	98.660474 
1772.000000	98.637244 
1771.000000	98.612446 
1770.000000	98.594159 
1769.000000	98.584029 
1768.000000	98.579519 
1767.000000	98.574686 
1766.000000	98.564051 
1765.000000	98.547964 
1764.000000	98.530968 
1763.000000	98.515817 
1762.000000	98.499944 
1761.000000	98.479636 
1760.000000	98.457492 
1759.000000	98.435927 
1758.000000	98.411901 
1757.000000	98.382146 
1756.000000	98.351577 
1755.000000	98.330066 
1754.000000	98.321288 
1753.000000	98.321630 
1752.000000	98.326148 
1751.000000	98.329254 
1750.000000	98.323712 
1749.000000	98.310278 
1748.000000	98.299230 
1747.000000	98.298325 
1746.000000	98.304752 
1745.000000	98.312436 
1744.000000	98.322168 
1743.000000	98.336032 
1742.000000	98.348301 
1741.000000	98.350648 
1740.000000	98.343617 
1739.000000	98.336190 
1738.000000	98.335494 
1737.000000	98.341184 
1736.000000	98.348158 
1735.000000	98.352783 
1734.000000	98.355650 
1733.000000	98.358143 
1732.000000	98.369882 
1731.000000	98.396620 
1730.000000	98.430029 
1729.000000	98.456506 
1728.000000	98.470646 
1727.000000	98.478011 
1726.000000	98.484086 
1725.000000	98.489029 
1724.000000	98.493004 
1723.000000	98.497569 
1722.000000	98.503692 
1721.000000	98.510250 
1720.000000	98.514598 
1719.000000	98.515364 
1718.000000	98.515039 
1717.000000	98.518782 
1716.000000	98.527818 
1715.000000	98.538864 
1714.000000	98.548964 
1713.000000	98.557363 
1712.000000	98.563406 
1711.000000	98.566900 
1710.000000	98.568560 
1709.000000	98.569032 
1708.000000	98.568889 
1707.000000	98.570042 
1706.000000	98.576632 
1705.000000	98.590072 
1704.000000	98.602497 
1703.000000	98.603280 
1702.000000	98.586414 
1701.000000	98.561094 
1700.000000	98.549725 
1699.000000	98.550860 
1698.000000	98.558566 
1697.000000	98.574263 
1696.000000	98.591911 
1695.000000	98.599270 
1694.000000	98.599141 
1693.000000	98.603715 
1692.000000	98.613055 
1691.000000	98.619566 
1690.000000	98.620754 
1689.000000	98.620782 
1688.000000	98.622149 
1687.000000	98.621365 
1686.000000	98.612888 
1685.000000	98.600571 
1684.000000	98.592746 
1683.000000	98.587850 
1682.000000	98.590644 
1681.000000	98.600354 
1680.000000	98.609110 
1679.000000	98.610961 
1678.000000	98.605443 
1677.000000	98.596600 
1676.000000	98.592699 
1675.000000	98.600238 
1674.000000	98.611951 
1673.000000	98.616278 
1672.000000	98.610639 
1671.000000	98.599998 
1670.000000	98.594483 
1669.000000	98.596345 
1668.000000	98.598684 
1667.000000	98.599061 
1666.000000	98.598021 
1665.000000	98.594915 
1664.000000	98.588474 
1663.000000	98.579558 
1662.000000	98.573472 
1661.000000	98.575451 
1660.000000	98.586733 
1659.000000	98.603490 
1658.000000	98.618058 
1657.000000	98.623095 
1656.000000	98.615052 
1655.000000	98.596831 
1654.000000	98.583391 
1653.000000	98.585826 
1652.000000	98.585317 
1651.000000	98.586926 
1650.000000	98.593704 
1649.000000	98.598948 
1648.000000	98.598975 
1647.000000	98.596538 
1646.000000	98.591710 
1645.000000	98.588370 
1644.000000	98.593107 
1643.000000	98.604523 
1642.000000	98.616506 
1641.000000	98.622524 
1640.000000	98.620211 
1639.000000	98.613525 
1638.000000	98.608561 
1637.000000	98.608103 
1636.000000	98.607199 
1635.000000	98.599709 
1634.000000	98.593429 
1633.000000	98.601171 
1632.000000	98.620044 
1631.000000	98.637292 
1630.000000	98.642680 
1629.000000	98.635524 
1628.000000	98.622907 
1627.000000	98.612144 
1626.000000	98.604969 
1625.000000	98.598336 
1624.000000	98.590826 
1623.000000	98.585096 
1622.000000	98.583478 
1621.000000	98.584430 
1620.000000	98.586469 
1619.000000	98.591110 
1618.000000	98.601762 
1617.000000	98.616370 
1616.000000	98.622480 
1615.000000	98.616483 
1614.000000	98.606865 
1613.000000	98.597977 
1612.000000	98.590641 
1611.000000	98.588062 
1610.000000	98.593049 
1609.000000	98.600902 
1608.000000	98.604000 
1607.000000	98.601893 
1606.000000	98.599511 
1605.000000	98.597097 
1604.000000	98.591334 
1603.000000	98.583144 
1602.000000	98.578494 
1601.000000	98.582472 
1600.000000	98.595335 
1599.000000	98.612604 
1598.000000	98.625969 
1597.000000	98.627850 
1596.000000	98.618356 
1595.000000	98.606475 
1594.000000	98.602563 
1593.000000	98.609145 
1592.000000	98.621124 
1591.000000	98.632137 
1590.000000	98.637976 
1589.000000	98.636475 
1588.000000	98.628598 
1587.000000	98.618793 
1586.000000	98.611687 
1585.000000	98.608902 
1584.000000	98.611215 
1583.000000	98.621474 
1582.000000	98.638179 
1581.000000	98.651652 
1580.000000	98.653598 
1579.000000	98.646583 
1578.000000	98.639266 
1577.000000	98.638293 
1576.000000	98.643808 
1575.000000	98.653537 
1574.000000	98.667927 
1573.000000	98.682067 
1572.000000	98.688952 
1571.000000	98.688178 
1570.000000	98.686828 
1569.000000	98.685944 
1568.000000	98.680553 
1567.000000	98.672047 
1566.000000	98.662233 
1565.000000	98.651802 
1564.000000	98.644560 
1563.000000	98.647775 
1562.000000	98.663460 
1561.000000	98.684043 
1560.000000	98.701216 
1559.000000	98.711353 
1558.000000	98.695422 
1557.000000	98.670834 
1556.000000	98.660021 
1555.000000	98.661696 
1554.000000	98.666457 
1553.000000	98.664103 
1552.000000	98.653000 
1551.000000	98.639198 
1550.000000	98.630705 
1549.000000	98.630957 
1548.000000	98.635631 
1547.000000	98.639173 
1546.000000	98.639103 
1545.000000	98.638275 
1544.000000	98.640853 
1543.000000	98.645427 
1542.000000	98.645275 
1541.000000	98.637082 
1540.000000	98.620771 
1539.000000	98.603676 
1538.000000	98.602907 
1537.000000	98.618673 
1536.000000	98.636813 
1535.000000	98.647269 
1534.000000	98.652103 
1533.000000	98.658777 
1532.000000	98.667590 
1531.000000	98.672500 
1530.000000	98.669586 
1529.000000	98.662813 
1528.000000	98.661560 
1527.000000	98.671160 
1526.000000	98.685232 
1525.000000	98.692747 
1524.000000	98.691139 
1523.000000	98.686789 
1522.000000	98.687071 
1521.000000	98.689428 
1520.000000	98.685246 
1519.000000	98.678002 
1518.000000	98.676676 
1517.000000	98.686855 
1516.000000	98.704363 
1515.000000	98.718077 
1514.000000	98.721764 
1513.000000	98.714805 
1512.000000	98.700183 
1511.000000	98.680211 
1510.000000	98.655927 
1509.000000	98.633086 
1508.000000	98.631139 
1507.000000	98.663489 
1506.000000	98.697770 
1505.000000	98.709587 
1504.000000	98.710758 
1503.000000	98.710098 
1502.000000	98.709483 
1501.000000	98.710268 
1500.000000	98.715893 
1499.000000	98.728115 
1498.000000	98.742137 
1497.000000	98.751718 
1496.000000	98.754701 
1495.000000	98.751205 
1494.000000	98.742922 
1493.000000	98.730926 
1492.000000	98.715850 
1491.000000	98.700648 
1490.000000	98.690137 
1489.000000	98.686965 
1488.000000	98.689751 
1487.000000	98.693928 
1486.000000	98.698167 
1485.000000	98.702205 
1484.000000	98.703484 
1483.000000	98.702573 
1482.000000	98.702745 
1481.000000	98.705572 
1480.000000	98.705819 
1479.000000	98.696058 
1478.000000	98.675228 
1477.000000	98.651802 
1476.000000	98.635976 
1475.000000	98.628958 
1474.000000	98.627770 
1473.000000	98.629726 
1472.000000	98.629618 
1471.000000	98.622637 
1470.000000	98.613482 
1469.000000	98.609600 
1468.000000	98.612623 
1467.000000	98.617085 
1466.000000	98.618148 
1465.000000	98.617993 
1464.000000	98.620630 
1463.000000	98.624250 
1462.000000	98.623763 
1461.000000	98.618640 
1460.000000	98.613252 
1459.000000	98.612734 
1458.000000	98.616380 
1457.000000	98.617896 
1456.000000	98.616112 
1455.000000	98.619678 
1454.000000	98.628311 
1453.000000	98.632174 
1452.000000	98.624812 
1451.000000	98.609015 
1450.000000	98.594673 
1449.000000	98.592907 
1448.000000	98.607128 
1447.000000	98.625111 
1446.000000	98.629974 
1445.000000	98.616690 
1444.000000	98.595360 
1443.000000	98.579618 
1442.000000	98.574355 
1441.000000	98.574934 
1440.000000	98.576496 
1439.000000	98.578612 
1438.000000	98.581348 
1437.000000	98.585647 
1436.000000	98.592467 
1435.000000	98.600996 
1434.000000	98.609816 
1433.000000	98.617165 
1432.000000	98.621323 
1431.000000	98.623717 
1430.000000	98.626648 
1429.000000	98.630596 
1428.000000	98.634531 
1427.000000	98.636497 
1426.000000	98.634460 
1425.000000	98.625953 
1424.000000	98.613622 
1423.000000	98.604624 
1422.000000	98.602437 
1421.000000	98.606357 
1420.000000	98.616739 
1419.000000	98.632896 
1418.000000	98.643797 
1417.000000	98.643215 
1416.000000	98.637791 
1415.000000	98.634201 
1414.000000	98.633641 
1413.000000	98.634228 
1412.000000	98.635973 
1411.000000	98.641224 
1410.000000	98.649839 
1409.000000	98.658711 
1408.000000	98.664494 
1407.000000	98.665029 
1406.000000	98.662163 
1405.000000	98.660407 
1404.000000	98.662571 
1403.000000	98.665037 
1402.000000	98.660387 
1401.000000	98.645400 
1400.000000	98.624586 
1399.000000	98.607636 
1398.000000	98.600968 
1397.000000	98.606357 
1396.000000	98.623346 
1395.000000	98.646077 
1394.000000	98.661907 
1393.000000	98.662486 
1392.000000	98.653788 
1391.000000	98.645916 
1390.000000	98.643072 
1389.000000	98.643943 
1388.000000	98.645901 
1387.000000	98.646656 
1386.000000	98.644830 
1385.000000	98.640851 
1384.000000	98.635723 
1383.000000	98.628966 
1382.000000	98.619615 
1381.000000	98.610008 
1380.000000	98.604786 
1379.000000	98.605524 
1378.000000	98.607541 
1377.000000	98.604662 
1376.000000	98.597418 
1375.000000	98.594324 
1374.000000	98.601641 
1373.000000	98.613110 
1372.000000	98.617721 
1371.000000	98.612879 
1370.000000	98.605380 
1369.000000	98.601663 
1368.000000	98.602514 
1367.000000	98.605635 
1366.000000	98.610431 
1365.000000	98.618445 
1364.000000	98.630051 
1363.000000	98.642335 
1362.000000	98.651124 
1361.000000	98.655473 
1360.000000	98.658712 
1359.000000	98.664725 
1358.000000	98.674442 
1357.000000	98.684669 
1356.000000	98.690563 
1355.000000	98.690202 
1354.000000	98.686733 
1353.000000	98.685088 
1352.000000	98.686178 
1351.000000	98.686019 
1350.000000	98.682435 
1349.000000	98.677294 
1348.000000	98.674451 
1347.000000	98.675671 
1346.000000	98.679499 
1345.000000	98.682874 
1344.000000	98.683719 
1343.000000	98.682236 
1342.000000	98.680520 
1341.000000	98.680727 
1340.000000	98.683078 
1339.000000	98.685306 
1338.000000	98.684678 
1337.000000	98.680846 
1336.000000	98.675615 
1335.000000	98.670316 
1334.000000	98.665110 
1333.000000	98.660711 
1332.000000	98.659034 
1331.000000	98.661004 
1330.000000	98.664440 
1329.000000	98.665545 
1328.000000	98.663084 
1327.000000	98.659492 
1326.000000	98.657416 
1325.000000	98.656043 
1324.000000	98.654030 
1323.000000	98.653646 
1322.000000	98.658835 
1321.000000	98.669333 
1320.000000	98.679039 
1319.000000	98.681024 
1318.000000	98.673590 
1317.000000	98.661193 
1316.000000	98.650131 
1315.000000	98.644530 
1314.000000	98.645636 
1313.000000	98.653012 
1312.000000	98.664911 
1311.000000	98.677878 
1310.000000	98.687873 
1309.000000	98.692828 
1308.000000	98.693460 
1307.000000	98.690674 
1306.000000	98.683557 
1305.000000	98.670940 
1304.000000	98.655544 
1303.000000	98.643739 
1302.000000	98.640133 
1301.000000	98.643510 
1300.000000	98.649120 
1299.000000	98.653463 
1298.000000	98.655579 
1297.000000	98.654805 
1296.000000	98.649444 
1295.000000	98.639063 
1294.000000	98.627065 
1293.000000	98.619283 
1292.000000	98.618826 
1291.000000	98.622444 
1290.000000	98.623310 
1289.000000	98.618157 
1288.000000	98.610719 
1287.000000	98.607381 
1286.000000	98.610238 
1285.000000	98.615405 
1284.000000	98.617261 
1283.000000	98.613099 
1282.000000	98.604749 
1281.000000	98.597144 
1280.000000	98.594642 
1279.000000	98.597524 
1278.000000	98.601951 
1277.000000	98.604104 
1276.000000	98.603273 
1275.000000	98.600221 
1274.000000	98.594203 
1273.000000	98.583923 
1272.000000	98.570534 
1271.000000	98.556835 
1270.000000	98.543337 
1269.000000	98.527932 
1268.000000	98.510336 
1267.000000	98.494308 
1266.000000	98.484021 
1265.000000	98.480116 
1264.000000	98.479866 
1263.000000	98.478866 
1262.000000	98.472128 
1261.000000	98.457124 
1260.000000	98.438139 
1259.000000	98.425162 
1258.000000	98.424274 
1257.000000	98.429908 
1256.000000	98.429491 
1255.000000	98.416387 
1254.000000	98.396998 
1253.000000	98.384529 
1252.000000	98.386666 
1251.000000	98.399817 
1250.000000	98.414045 
1249.000000	98.421957 
1248.000000	98.422548 
1247.000000	98.418731 
1246.000000	98.414228 
1245.000000	98.413685 
1244.000000	98.422566 
1243.000000	98.443050 
1242.000000	98.469999 
1241.000000	98.493816 
1240.000000	98.508328 
1239.000000	98.514809 
1238.000000	98.518136 
1237.000000	98.520224 
1236.000000	98.518240 
1235.000000	98.509060 
1234.000000	98.494537 
1233.000000	98.481205 
1232.000000	98.474222 
1231.000000	98.472720 
1230.000000	98.472817 
1229.000000	98.474317 
1228.000000	98.480753 
1227.000000	98.492064 
1226.000000	98.501929 
1225.000000	98.505659 
1224.000000	98.507064 
1223.000000	98.512783 
1222.000000	98.522144 
1221.000000	98.528385 
1220.000000	98.529335 
1219.000000	98.530908 
1218.000000	98.538498 
1217.000000	98.550083 
1216.000000	98.560841 
1215.000000	98.570534 
1214.000000	98.582362 
1213.000000	98.596591 
1212.000000	98.609277 
1211.000000	98.616818 
1210.000000	98.618922 
1209.000000	98.616880 
1208.000000	98.611525 
1207.000000	98.604112 
1206.000000	98.597566 
1205.000000	98.594857 
1204.000000	98.595928 
1203.000000	98.597384 
1202.000000	98.596028 
1201.000000	98.592089 
1200.000000	98.587717 
1199.000000	98.582852 
1198.000000	98.575076 
1197.000000	98.564999 
1196.000000	98.559312 
1195.000000	98.564667 
1194.000000	98.578287 
1193.000000	98.588023 
1192.000000	98.584247 
1191.000000	98.570855 
1190.000000	98.562489 
1189.000000	98.570252 
1188.000000	98.590820 
1187.000000	98.609507 
1186.000000	98.613467 
1185.000000	98.601785 
1184.000000	98.583461 
1183.000000	98.567467 
1182.000000	98.555756 
1181.000000	98.544791 
1180.000000	98.531916 
1179.000000	98.519047 
1178.000000	98.509876 
1177.000000	98.503814 
1176.000000	98.494324 
1175.000000	98.475747 
1174.000000	98.452302 
1173.000000	98.436872 
1172.000000	98.438164 
1171.000000	98.451106 
1170.000000	98.462844 
1169.000000	98.466069 
1168.000000	98.462318 
1167.000000	98.454939 
1166.000000	98.446289 
1165.000000	98.441811 
1164.000000	98.447815 
1163.000000	98.460813 
1162.000000	98.465830 
1161.000000	98.451572 
1160.000000	98.423378 
1159.000000	98.396434 
1158.000000	98.380087 
1157.000000	98.374112 
1156.000000	98.375939 
1155.000000	98.383373 
1154.000000	98.391825 
1153.000000	98.396529 
1152.000000	98.397589 
1151.000000	98.397036 
1150.000000	98.391895 
1149.000000	98.377603 
1148.000000	98.358998 
1147.000000	98.349506 
1146.000000	98.354549 
1145.000000	98.361136 
1144.000000	98.350403 
1143.000000	98.319478 
1142.000000	98.286669 
1141.000000	98.273810 
1140.000000	98.285264 
1139.000000	98.304977 
1138.000000	98.313338 
1137.000000	98.305564 
1136.000000	98.292442 
1135.000000	98.285223 
1134.000000	98.284744 
1133.000000	98.286642 
1132.000000	98.290714 
1131.000000	98.298418 
1130.000000	98.303668 
1129.000000	98.294075 
1128.000000	98.263681 
1127.000000	98.220693 
1126.000000	98.180803 
1125.000000	98.155005 
1124.000000	98.144500 
1123.000000	98.144094 
1122.000000	98.148045 
1121.000000	98.153042 
1120.000000	98.156212 
1119.000000	98.151838 
1118.000000	98.134264 
1117.000000	98.106363 
1116.000000	98.081482 
1115.000000	98.072390 
1114.000000	98.078840 
1113.000000	98.088518 
1112.000000	98.088339 
1111.000000	98.072532 
1110.000000	98.043708 
1109.000000	98.010647 
1108.000000	97.982703 
1107.000000	97.961206 
1106.000000	97.938486 
1105.000000	97.909385 
1104.000000	97.879585 
1103.000000	97.856650 
1102.000000	97.837399 
1101.000000	97.812814 
1100.000000	97.783060 
1099.000000	97.755928 
1098.000000	97.733105 
1097.000000	97.707835 
1096.000000	97.678191 
1095.000000	97.651329 
1094.000000	97.630704 
1093.000000	97.609492 
1092.000000	97.583150 
1091.000000	97.560167 
1090.000000	97.551858 
1089.000000	97.555860 
1088.000000	97.557333 
1087.000000	97.544759 
1086.000000	97.519698 
1085.000000	97.492054 
1084.000000	97.469969 
1083.000000	97.454515 
1082.000000	97.441569 
1081.000000	97.427590 
1080.000000	97.412250 
1079.000000	97.394154 
1078.000000	97.366757 
1077.000000	97.324023 
1076.000000	97.270992 
1075.000000	97.224747 
1074.000000	97.202664 
1073.000000	97.210237 
1072.000000	97.238231 
1071.000000	97.267763 
1070.000000	97.280544 
1069.000000	97.270266 
1068.000000	97.244667 
1067.000000	97.214844 
1066.000000	97.185639 
1065.000000	97.159044 
1064.000000	97.139377 
1063.000000	97.124903 
1062.000000	97.098287 
1061.000000	97.039240 
1060.000000	96.949566 
1059.000000	96.855632 
1058.000000	96.781650 
1057.000000	96.728640 
1056.000000	96.683864 
1055.000000	96.641154 
1054.000000	96.603437 
1053.000000	96.569608 
1052.000000	96.527569 
1051.000000	96.463063 
1050.000000	96.374515 
1049.000000	96.277878 
1048.000000	96.193708 
1047.000000	96.126797 
1046.000000	96.061789 
1045.000000	95.983044 
1044.000000	95.893937 
1043.000000	95.809242 
1042.000000	95.732477 
1041.000000	95.652588 
1040.000000	95.563932 
1039.000000	95.476661 
1038.000000	95.401809 
1037.000000	95.336578 
1036.000000	95.271658 
1035.000000	95.204509 
1034.000000	95.136892 
1033.000000	95.065146 
1032.000000	94.981571 
1031.000000	94.883229 
1030.000000	94.774147 
1029.000000	94.661586 
1028.000000	94.554170 
1027.000000	94.459662 
1026.000000	94.379308 
1025.000000	94.306872 
1024.000000	94.236707 
1023.000000	94.169479 
1022.000000	94.106950 
1021.000000	94.045209 
1020.000000	93.977353 
1019.000000	93.900526 
1018.000000	93.817257 
1017.000000	93.732370 
1016.000000	93.651695 
1015.000000	93.581445 
1014.000000	93.524226 
1013.000000	93.474456 
1012.000000	93.419457 
1011.000000	93.348025 
1010.000000	93.260932 
1009.000000	93.171600 
1008.000000	93.090700 
1007.000000	93.009439 
1006.000000	92.906202 
1005.000000	92.774981 
1004.000000	92.640260 
1003.000000	92.536641 
1002.000000	92.478368 
1001.000000	92.454499 
1000.000000	92.444959 
999.000000	 92.430301 
998.000000	 92.394744 
997.000000	 92.336495 
996.000000	 92.273249 
995.000000	 92.223928 
994.000000	 92.185391 
993.000000	 92.138858 
992.000000	 92.077184 
991.000000	 92.011557 
990.000000	 91.951348 
989.000000	 91.892138 
988.000000	 91.825561 
987.000000	 91.746392 
986.000000	 91.646366 
985.000000	 91.515139 
984.000000	 91.353568 
983.000000	 91.175368 
982.000000	 90.991097 
981.000000	 90.801422 
980.000000	 90.610306 
979.000000	 90.431295 
978.000000	 90.272692 
977.000000	 90.126874 
976.000000	 89.981532 
975.000000	 89.832188 
974.000000	 89.677894 
973.000000	 89.516074 
972.000000	 89.351095 
971.000000	 89.199944 
970.000000	 89.079782 
969.000000	 88.993780 
968.000000	 88.934136 
967.000000	 88.892965 
966.000000	 88.866402 
965.000000	 88.855184 
964.000000	 88.865936 
963.000000	 88.906458 
962.000000	 88.976417 
961.000000	 89.066917 
960.000000	 89.168798 
959.000000	 89.274789 
958.000000	 89.375197 
957.000000	 89.461207 
956.000000	 89.533573 
955.000000	 89.599507 
954.000000	 89.658890 
953.000000	 89.699649 
952.000000	 89.706553 
951.000000	 89.668141 
950.000000	 89.578119 
949.000000	 89.441029 
948.000000	 89.276684 
947.000000	 89.107362 
946.000000	 88.937937 
945.000000	 88.758657 
944.000000	 88.568195 
943.000000	 88.380892 
942.000000	 88.208855 
941.000000	 88.052118 
940.000000	 87.912363 
939.000000	 87.800717 
938.000000	 87.721647 
937.000000	 87.660674 
936.000000	 87.598436 
935.000000	 87.528471 
934.000000	 87.453324 
933.000000	 87.373558 
932.000000	 87.292054 
931.000000	 87.221983 
930.000000	 87.176697 
929.000000	 87.151411 
928.000000	 87.123182 
927.000000	 87.071122 
926.000000	 86.993945 
925.000000	 86.906827 
924.000000	 86.822541 
923.000000	 86.738814 
922.000000	 86.648356 
921.000000	 86.559553 
920.000000	 86.495583 
919.000000	 86.465449 
918.000000	 86.445775 
917.000000	 86.404257 
916.000000	 86.334569 
915.000000	 86.254634 
914.000000	 86.177322 
913.000000	 86.101106 
912.000000	 86.027243 
911.000000	 85.965176 
910.000000	 85.916247 
909.000000	 85.869073 
908.000000	 85.817656 
907.000000	 85.770551 
906.000000	 85.736116 
905.000000	 85.709868 
904.000000	 85.680957 
903.000000	 85.641922 
902.000000	 85.590773 
901.000000	 85.533943 
900.000000	 85.487215 
899.000000	 85.461247 
898.000000	 85.445226 
897.000000	 85.417128 
896.000000	 85.370286 
895.000000	 85.316482 
894.000000	 85.263697 
893.000000	 85.206527 
892.000000	 85.139988 
891.000000	 85.066618 
890.000000	 84.986242 
889.000000	 84.893610 
888.000000	 84.790977 
887.000000	 84.690457 
886.000000	 84.600619 
885.000000	 84.522398 
884.000000	 84.457642 
883.000000	 84.404807 
882.000000	 84.344698 
881.000000	 84.250432 
880.000000	 84.118597 
879.000000	 83.974493 
878.000000	 83.839823 
877.000000	 83.710170 
876.000000	 83.570320 
875.000000	 83.415938 
874.000000	 83.253546 
873.000000	 83.093027 
872.000000	 82.944083 
871.000000	 82.805474 
870.000000	 82.656546 
869.000000	 82.477220 
868.000000	 82.277831 
867.000000	 82.089930 
866.000000	 81.924624 
865.000000	 81.760389 
864.000000	 81.578285 
863.000000	 81.389114 
862.000000	 81.215962 
861.000000	 81.066736 
860.000000	 80.935321 
859.000000	 80.817450 
858.000000	 80.715435 
857.000000	 80.633988 
856.000000	 80.574120 
855.000000	 80.523335 
854.000000	 80.455832 
853.000000	 80.357408 
852.000000	 80.246983 
851.000000	 80.157266 
850.000000	 80.098657 
849.000000	 80.061936 
848.000000	 80.050080 
847.000000	 80.077988 
846.000000	 80.139258 
845.000000	 80.203838 
844.000000	 80.257376 
843.000000	 80.316951 
842.000000	 80.396518 
841.000000	 80.477978 
840.000000	 80.528163 
839.000000	 80.527681 
838.000000	 80.474655 
837.000000	 80.376467 
836.000000	 80.246970 
835.000000	 80.098190 
834.000000	 79.927753 
833.000000	 79.728079 
832.000000	 79.512037 
831.000000	 79.311823 
830.000000	 79.145650 
829.000000	 79.003738 
828.000000	 78.874701 
827.000000	 78.763744 
826.000000	 78.672963 
825.000000	 78.586522 
824.000000	 78.492407 
823.000000	 78.400739 
822.000000	 78.326296 
821.000000	 78.269461 
820.000000	 78.223490 
819.000000	 78.183449 
818.000000	 78.143565 
817.000000	 78.103657 
816.000000	 78.081058 
815.000000	 78.097164 
814.000000	 78.146655 
813.000000	 78.197312 
812.000000	 78.225674 
811.000000	 78.236583 
810.000000	 78.243460 
809.000000	 78.247702 
808.000000	 78.246828 
807.000000	 78.249177 
806.000000	 78.270035 
805.000000	 78.317836 
804.000000	 78.384735 
803.000000	 78.445168 
802.000000	 78.471406 
801.000000	 78.463520 
800.000000	 78.457320 
799.000000	 78.488704 
798.000000	 78.556512 
797.000000	 78.634123 
796.000000	 78.705287 
795.000000	 78.767567 
794.000000	 78.813429 
793.000000	 78.836706 
792.000000	 78.853121 
791.000000	 78.887632 
790.000000	 78.943911 
789.000000	 79.010407 
788.000000	 79.089938 
787.000000	 79.193167 
786.000000	 79.306661 
785.000000	 79.401436 
784.000000	 79.476148 
783.000000	 79.559666 
782.000000	 79.664016 
781.000000	 79.765260 
780.000000	 79.841485 
779.000000	 79.902685 
778.000000	 79.970373 
777.000000	 80.049371 
776.000000	 80.131950 
775.000000	 80.211708 
774.000000	 80.283773 
773.000000	 80.348244 
772.000000	 80.421024 
771.000000	 80.524134 
770.000000	 80.657678 
769.000000	 80.796418 
768.000000	 80.919634 
767.000000	 81.029921 
766.000000	 81.140106 
765.000000	 81.258687 
764.000000	 81.391323 
763.000000	 81.539030 
762.000000	 81.690520 
761.000000	 81.831291 
760.000000	 81.961113 
759.000000	 82.086854 
758.000000	 82.201948 
757.000000	 82.295361 
756.000000	 82.379763 
755.000000	 82.484791 
754.000000	 82.617210 
753.000000	 82.751437 
752.000000	 82.866077 
751.000000	 82.966577 
750.000000	 83.064484 
749.000000	 83.158872 
748.000000	 83.251479 
747.000000	 83.360254 
746.000000	 83.501196 
745.000000	 83.667432 
744.000000	 83.837494 
743.000000	 83.995388 
742.000000	 84.136224 
741.000000	 84.262721 
740.000000	 84.381943 
739.000000	 84.497222 
738.000000	 84.602610 
737.000000	 84.696263 
736.000000	 84.796741 
735.000000	 84.927658 
734.000000	 85.083672 
733.000000	 85.229874 
732.000000	 85.339749 
731.000000	 85.417567 
730.000000	 85.480608 
729.000000	 85.540100 
728.000000	 85.608166 
727.000000	 85.702499 
726.000000	 85.827965 
725.000000	 85.964652 
724.000000	 86.084892 
723.000000	 86.174568 
722.000000	 86.236958 
721.000000	 86.292675 
720.000000	 86.377212 
719.000000	 86.512715 
718.000000	 86.676230 
717.000000	 86.820175 
716.000000	 86.926337 
715.000000	 87.019409 
714.000000	 87.122057 
713.000000	 87.220368 
712.000000	 87.293822 
711.000000	 87.358755 
710.000000	 87.452827 
709.000000	 87.583832 
708.000000	 87.719790 
707.000000	 87.827172 
706.000000	 87.896432 
705.000000	 87.931459 
704.000000	 87.939748 
703.000000	 87.942387 
702.000000	 87.973739 
701.000000	 88.054077 
700.000000	 88.167441 
699.000000	 88.276677 
698.000000	 88.357885 
697.000000	 88.413893 
696.000000	 88.457596 
695.000000	 88.494063 
694.000000	 88.525810 
693.000000	 88.566350 
692.000000	 88.633623 
691.000000	 88.728964 
690.000000	 88.835102 
689.000000	 88.942699 
688.000000	 89.064635 
687.000000	 89.206151 
686.000000	 89.333104 
685.000000	 89.396559 
684.000000	 89.388577 
683.000000	 89.352281 
682.000000	 89.334282 
681.000000	 89.345833 
680.000000	 89.373966 
679.000000	 89.410577 
678.000000	 89.454872 
677.000000	 89.496206 
676.000000	 89.517567 
675.000000	 89.513495 
674.000000	 89.501050 
673.000000	 89.510745 
672.000000	 89.564196 
671.000000	 89.658659 
670.000000	 89.770985 
669.000000	 89.872685 
668.000000	 89.947089 
667.000000	 89.974094 
666.000000	 89.971815 
665.000000	 89.968182 
664.000000	 89.950870 
663.000000	 89.917510 
662.000000	 89.896834 
661.000000	 89.918833 
660.000000	 89.978411 
659.000000	 90.037835 
658.000000	 90.064732 
657.000000	 90.068425 
656.000000	 90.094934 
655.000000	 90.179314 
654.000000	 90.310863 
653.000000	 90.447927 
652.000000	 90.547711 
651.000000	 90.574535 
650.000000	 90.517889 

