PE IR                   SPECTRUM    ASCII       PEDS        1.60        
  -1
~SP.SP
18/03/23
17:11:00.00
18/03/23
17:11:00.00
pili
Irradiada
650.000000
4









SPECTRUM 100,CPU32 MAIN 00.02.8200 12-DECEMBER-2006 10:00:00
MIR TGS
MIR
OPTKBR
78890
0.200000

4.000000
STRONG
RATIO
SPECTRUM
MAGNITUDE
UNIVERSAL ATR
DOUBLE

COMBINED


0


#HDR
-1
-1
#GR
CM-1
%T
0.00002384185791015625
0.0
4000.000000
-1.000000
3351
8
99.082808
41.415697
#DATA
4000.000000	98.411157 
3999.000000	98.414718 
3998.000000	98.414634 
3997.000000	98.415296 
3996.000000	98.418290 
3995.000000	98.422744 
3994.000000	98.429306 
3993.000000	98.441164 
3992.000000	98.459461 
3991.000000	98.478775 
3990.000000	98.489348 
3989.000000	98.484589 
3988.000000	98.466422 
3987.000000	98.443452 
3986.000000	98.424654 
3985.000000	98.414460 
3984.000000	98.411812 
3983.000000	98.412364 
3982.000000	98.411733 
3981.000000	98.408194 
3980.000000	98.403389 
3979.000000	98.400327 
3978.000000	98.400399 
3977.000000	98.402367 
3976.000000	98.404333 
3975.000000	98.406031 
3974.000000	98.408408 
3973.000000	98.411317 
3972.000000	98.413013 
3971.000000	98.412634 
3970.000000	98.412393 
3969.000000	98.416172 
3968.000000	98.425846 
3967.000000	98.439612 
3966.000000	98.453855 
3965.000000	98.465809 
3964.000000	98.473883 
3963.000000	98.476359 
3962.000000	98.471576 
3961.000000	98.460354 
3960.000000	98.447395 
3959.000000	98.438685 
3958.000000	98.436774 
3957.000000	98.439094 
3956.000000	98.441294 
3955.000000	98.441752 
3954.000000	98.442134 
3953.000000	98.444170 
3952.000000	98.447347 
3951.000000	98.450392 
3950.000000	98.454017 
3949.000000	98.460688 
3948.000000	98.471227 
3947.000000	98.482503 
3946.000000	98.489275 
3945.000000	98.488452 
3944.000000	98.482046 
3943.000000	98.475930 
3942.000000	98.475053 
3941.000000	98.479325 
3940.000000	98.484206 
3939.000000	98.484842 
3938.000000	98.480000 
3937.000000	98.472510 
3936.000000	98.466152 
3935.000000	98.461915 
3934.000000	98.457273 
3933.000000	98.449578 
3932.000000	98.440017 
3931.000000	98.433132 
3930.000000	98.431857 
3929.000000	98.434409 
3928.000000	98.436770 
3927.000000	98.437331 
3926.000000	98.438086 
3925.000000	98.441207 
3924.000000	98.445587 
3923.000000	98.447802 
3922.000000	98.445388 
3921.000000	98.438672 
3920.000000	98.430617 
3919.000000	98.425549 
3918.000000	98.426812 
3917.000000	98.434365 
3916.000000	98.444672 
3915.000000	98.453234 
3914.000000	98.457339 
3913.000000	98.457064 
3912.000000	98.455001 
3911.000000	98.454646 
3910.000000	98.457994 
3909.000000	98.463678 
3908.000000	98.467781 
3907.000000	98.466617 
3906.000000	98.459988 
3905.000000	98.452884 
3904.000000	98.453187 
3903.000000	98.465247 
3902.000000	98.484556 
3901.000000	98.499463 
3900.000000	98.500256 
3899.000000	98.487863 
3898.000000	98.472533 
3897.000000	98.463798 
3896.000000	98.463310 
3895.000000	98.466654 
3894.000000	98.469602 
3893.000000	98.471886 
3892.000000	98.475632 
3891.000000	98.480501 
3890.000000	98.482891 
3889.000000	98.479896 
3888.000000	98.472713 
3887.000000	98.466861 
3886.000000	98.468513 
3885.000000	98.477711 
3884.000000	98.487422 
3883.000000	98.490620 
3882.000000	98.486047 
3881.000000	98.478220 
3880.000000	98.473190 
3879.000000	98.473238 
3878.000000	98.476212 
3877.000000	98.478938 
3876.000000	98.480515 
3875.000000	98.482338 
3874.000000	98.485561 
3873.000000	98.489617 
3872.000000	98.492950 
3871.000000	98.493757 
3870.000000	98.490397 
3869.000000	98.482829 
3868.000000	98.474040 
3867.000000	98.468033 
3866.000000	98.465896 
3865.000000	98.464871 
3864.000000	98.461814 
3863.000000	98.457395 
3862.000000	98.455694 
3861.000000	98.459261 
3860.000000	98.466717 
3859.000000	98.474855 
3858.000000	98.481923 
3857.000000	98.487336 
3856.000000	98.489321 
3855.000000	98.487205 
3854.000000	98.486069 
3853.000000	98.489538 
3852.000000	98.492631 
3851.000000	98.491410 
3850.000000	98.488345 
3849.000000	98.487694 
3848.000000	98.490382 
3847.000000	98.493737 
3846.000000	98.494990 
3845.000000	98.493853 
3844.000000	98.491901 
3843.000000	98.489801 
3842.000000	98.486426 
3841.000000	98.480860 
3840.000000	98.474796 
3839.000000	98.471807 
3838.000000	98.474006 
3837.000000	98.479798 
3836.000000	98.486007 
3835.000000	98.491294 
3834.000000	98.495641 
3833.000000	98.497846 
3832.000000	98.495401 
3831.000000	98.487192 
3830.000000	98.475416 
3829.000000	98.464989 
3828.000000	98.461262 
3827.000000	98.466405 
3826.000000	98.476607 
3825.000000	98.484249 
3824.000000	98.484106 
3823.000000	98.477774 
3822.000000	98.472966 
3821.000000	98.474732 
3820.000000	98.478916 
3819.000000	98.479971 
3818.000000	98.478533 
3817.000000	98.480071 
3816.000000	98.488799 
3815.000000	98.501808 
3814.000000	98.511561 
3813.000000	98.513416 
3812.000000	98.507676 
3811.000000	98.497708 
3810.000000	98.488242 
3809.000000	98.484007 
3808.000000	98.487535 
3807.000000	98.497029 
3806.000000	98.507133 
3805.000000	98.513914 
3804.000000	98.517559 
3803.000000	98.519900 
3802.000000	98.521861 
3801.000000	98.521914 
3800.000000	98.517424 
3799.000000	98.508118 
3798.000000	98.496543 
3797.000000	98.485917 
3796.000000	98.478270 
3795.000000	98.474516 
3794.000000	98.475135 
3793.000000	98.480541 
3792.000000	98.490432 
3791.000000	98.502470 
3790.000000	98.512218 
3789.000000	98.515792 
3788.000000	98.513137 
3787.000000	98.508594 
3786.000000	98.507168 
3785.000000	98.509616 
3784.000000	98.512205 
3783.000000	98.511649 
3782.000000	98.509137 
3781.000000	98.508977 
3780.000000	98.513510 
3779.000000	98.519354 
3778.000000	98.520030 
3777.000000	98.512003 
3776.000000	98.497049 
3775.000000	98.480090 
3774.000000	98.465778 
3773.000000	98.455999 
3772.000000	98.449718 
3771.000000	98.445016 
3770.000000	98.442097 
3769.000000	98.444296 
3768.000000	98.454968 
3767.000000	98.472466 
3766.000000	98.488642 
3765.000000	98.494163 
3764.000000	98.487054 
3763.000000	98.474819 
3762.000000	98.467768 
3761.000000	98.470939 
3760.000000	98.480784 
3759.000000	98.488623 
3758.000000	98.488953 
3757.000000	98.484079 
3756.000000	98.481043 
3755.000000	98.485066 
3754.000000	98.494766 
3753.000000	98.503184 
3752.000000	98.504469 
3751.000000	98.499522 
3750.000000	98.493237 
3749.000000	98.488250 
3748.000000	98.484651 
3747.000000	98.482724 
3746.000000	98.482148 
3745.000000	98.481766 
3744.000000	98.480286 
3743.000000	98.475226 
3742.000000	98.464847 
3741.000000	98.450766 
3740.000000	98.436305 
3739.000000	98.424290 
3738.000000	98.417740 
3737.000000	98.420146 
3736.000000	98.433261 
3735.000000	98.455283 
3734.000000	98.480771 
3733.000000	98.501219 
3732.000000	98.506687 
3731.000000	98.492608 
3730.000000	98.465642 
3729.000000	98.440024 
3728.000000	98.427390 
3727.000000	98.429478 
3726.000000	98.438710 
3725.000000	98.446245 
3724.000000	98.449260 
3723.000000	98.451387 
3722.000000	98.458796 
3721.000000	98.475693 
3720.000000	98.500806 
3719.000000	98.526374 
3718.000000	98.542497 
3717.000000	98.544382 
3716.000000	98.535367 
3715.000000	98.522682 
3714.000000	98.509913 
3713.000000	98.496167 
3712.000000	98.480582 
3711.000000	98.465898 
3710.000000	98.456916 
3709.000000	98.457360 
3708.000000	98.468195 
3707.000000	98.486023 
3706.000000	98.504457 
3705.000000	98.515944 
3704.000000	98.516363 
3703.000000	98.507843 
3702.000000	98.498080 
3701.000000	98.494612 
3700.000000	98.500716 
3699.000000	98.515545 
3698.000000	98.535205 
3697.000000	98.553179 
3696.000000	98.562105 
3695.000000	98.558588 
3694.000000	98.545420 
3693.000000	98.530754 
3692.000000	98.523325 
3691.000000	98.527911 
3690.000000	98.541153 
3689.000000	98.553759 
3688.000000	98.559313 
3687.000000	98.559213 
3686.000000	98.559446 
3685.000000	98.563049 
3684.000000	98.567146 
3683.000000	98.565927 
3682.000000	98.558492 
3681.000000	98.550434 
3680.000000	98.547403 
3679.000000	98.548065 
3678.000000	98.544292 
3677.000000	98.528819 
3676.000000	98.504439 
3675.000000	98.483099 
3674.000000	98.474650 
3673.000000	98.481284 
3672.000000	98.499160 
3671.000000	98.522312 
3670.000000	98.545264 
3669.000000	98.564226 
3668.000000	98.577591 
3667.000000	98.585011 
3666.000000	98.586742 
3665.000000	98.584584 
3664.000000	98.581309 
3663.000000	98.578560 
3662.000000	98.576717 
3661.000000	98.576696 
3660.000000	98.579559 
3659.000000	98.583775 
3658.000000	98.584823 
3657.000000	98.580089 
3656.000000	98.573107 
3655.000000	98.570012 
3654.000000	98.573303 
3653.000000	98.580746 
3652.000000	98.587443 
3651.000000	98.588573 
3650.000000	98.582813 
3649.000000	98.573744 
3648.000000	98.567858 
3647.000000	98.570190 
3646.000000	98.580713 
3645.000000	98.595446 
3644.000000	98.609783 
3643.000000	98.620335 
3642.000000	98.625501 
3641.000000	98.625461 
3640.000000	98.621373 
3639.000000	98.613449 
3638.000000	98.600512 
3637.000000	98.582779 
3636.000000	98.564782 
3635.000000	98.553762 
3634.000000	98.553916 
3633.000000	98.563540 
3632.000000	98.578570 
3631.000000	98.596156 
3630.000000	98.613310 
3629.000000	98.622984 
3628.000000	98.617475 
3627.000000	98.599475 
3626.000000	98.580801 
3625.000000	98.571141 
3624.000000	98.570923 
3623.000000	98.572443 
3622.000000	98.568629 
3621.000000	98.561332 
3620.000000	98.559716 
3619.000000	98.568547 
3618.000000	98.581390 
3617.000000	98.588523 
3616.000000	98.586887 
3615.000000	98.580727 
3614.000000	98.575775 
3613.000000	98.574415 
3612.000000	98.575225 
3611.000000	98.575689 
3610.000000	98.574404 
3609.000000	98.572444 
3608.000000	98.573034 
3607.000000	98.578543 
3606.000000	98.589265 
3605.000000	98.603706 
3604.000000	98.619163 
3603.000000	98.631507 
3602.000000	98.636899 
3601.000000	98.635503 
3600.000000	98.632734 
3599.000000	98.635176 
3598.000000	98.644423 
3597.000000	98.657122 
3596.000000	98.669516 
3595.000000	98.680469 
3594.000000	98.688030 
3593.000000	98.687596 
3592.000000	98.675291 
3591.000000	98.653502 
3590.000000	98.631750 
3589.000000	98.621948 
3588.000000	98.629273 
3587.000000	98.646569 
3586.000000	98.662567 
3585.000000	98.672467 
3584.000000	98.678150 
3583.000000	98.682127 
3582.000000	98.684769 
3581.000000	98.685785 
3580.000000	98.686791 
3579.000000	98.691398 
3578.000000	98.701389 
3577.000000	98.714315 
3576.000000	98.724275 
3575.000000	98.725824 
3574.000000	98.716464 
3573.000000	98.697803 
3572.000000	98.674941 
3571.000000	98.655405 
3570.000000	98.646665 
3569.000000	98.653127 
3568.000000	98.672711 
3567.000000	98.697010 
3566.000000	98.717541 
3565.000000	98.732107 
3564.000000	98.742491 
3563.000000	98.749638 
3562.000000	98.753363 
3561.000000	98.754720 
3560.000000	98.756302 
3559.000000	98.759822 
3558.000000	98.764367 
3557.000000	98.768084 
3556.000000	98.771257 
3555.000000	98.776860 
3554.000000	98.787685 
3553.000000	98.803366 
3552.000000	98.820904 
3551.000000	98.837767 
3550.000000	98.852752 
3549.000000	98.863562 
3548.000000	98.866071 
3547.000000	98.858630 
3546.000000	98.847115 
3545.000000	98.842441 
3544.000000	98.850431 
3543.000000	98.865401 
3542.000000	98.875022 
3541.000000	98.871711 
3540.000000	98.859162 
3539.000000	98.848775 
3538.000000	98.850002 
3537.000000	98.863661 
3536.000000	98.882741 
3535.000000	98.898971 
3534.000000	98.908406 
3533.000000	98.911926 
3532.000000	98.911972 
3531.000000	98.910120 
3530.000000	98.907433 
3529.000000	98.905805 
3528.000000	98.907474 
3527.000000	98.913059 
3526.000000	98.920943 
3525.000000	98.928888 
3524.000000	98.936081 
3523.000000	98.944059 
3522.000000	98.955932 
3521.000000	98.973601 
3520.000000	98.994178 
3519.000000	99.009969 
3518.000000	99.014509 
3517.000000	99.009826 
3516.000000	99.005752 
3515.000000	99.010489 
3514.000000	99.022388 
3513.000000	99.031882 
3512.000000	99.030879 
3511.000000	99.019735 
3510.000000	99.005948 
3509.000000	98.996679 
3508.000000	98.992538 
3507.000000	98.988286 
3506.000000	98.979397 
3505.000000	98.967366 
3504.000000	98.958295 
3503.000000	98.956411 
3502.000000	98.960415 
3501.000000	98.965914 
3500.000000	98.968923 
3499.000000	98.967112 
3498.000000	98.961344 
3497.000000	98.957417 
3496.000000	98.962325 
3495.000000	98.975435 
3494.000000	98.985903 
3493.000000	98.982674 
3492.000000	98.966099 
3491.000000	98.946394 
3490.000000	98.932191 
3489.000000	98.924624 
3488.000000	98.922586 
3487.000000	98.927863 
3486.000000	98.941532 
3485.000000	98.958421 
3484.000000	98.969454 
3483.000000	98.969146 
3482.000000	98.959104 
3481.000000	98.945115 
3480.000000	98.933512 
3479.000000	98.929888 
3478.000000	98.937189 
3477.000000	98.952282 
3476.000000	98.966056 
3475.000000	98.970491 
3474.000000	98.967116 
3473.000000	98.966511 
3472.000000	98.977734 
3471.000000	98.998470 
3470.000000	99.016779 
3469.000000	99.022804 
3468.000000	99.017759 
3467.000000	99.011479 
3466.000000	99.012270 
3465.000000	99.020043 
3464.000000	99.028033 
3463.000000	99.029715 
3462.000000	99.025043 
3461.000000	99.021511 
3460.000000	99.028501 
3459.000000	99.048160 
3458.000000	99.071039 
3457.000000	99.082808 
3456.000000	99.076909 
3455.000000	99.060201 
3454.000000	99.045238 
3453.000000	99.038133 
3452.000000	99.035777 
3451.000000	99.033488 
3450.000000	99.032049 
3449.000000	99.035746 
3448.000000	99.045658 
3447.000000	99.057347 
3446.000000	99.065090 
3445.000000	99.066271 
3444.000000	99.061169 
3443.000000	99.050829 
3442.000000	99.036584 
3441.000000	99.020688 
3440.000000	99.006180 
3439.000000	98.995946 
3438.000000	98.991316 
3437.000000	98.990333 
3436.000000	98.987563 
3435.000000	98.977979 
3434.000000	98.962549 
3433.000000	98.949359 
3432.000000	98.947937 
3431.000000	98.962202 
3430.000000	98.987932 
3429.000000	99.014598 
3428.000000	99.029450 
3427.000000	99.024279 
3426.000000	99.002236 
3425.000000	98.976735 
3424.000000	98.959960 
3423.000000	98.952273 
3422.000000	98.945115 
3421.000000	98.933548 
3420.000000	98.921975 
3419.000000	98.917480 
3418.000000	98.921974 
3417.000000	98.932288 
3416.000000	98.943397 
3415.000000	98.948907 
3414.000000	98.942634 
3413.000000	98.924937 
3412.000000	98.906175 
3411.000000	98.898880 
3410.000000	98.905235 
3409.000000	98.914977 
3408.000000	98.916469 
3407.000000	98.907661 
3406.000000	98.894828 
3405.000000	98.883031 
3404.000000	98.871248 
3403.000000	98.856963 
3402.000000	98.842613 
3401.000000	98.834715 
3400.000000	98.836705 
3399.000000	98.844798 
3398.000000	98.851494 
3397.000000	98.851484 
3396.000000	98.843169 
3395.000000	98.827237 
3394.000000	98.807538 
3393.000000	98.792719 
3392.000000	98.792296 
3391.000000	98.808314 
3390.000000	98.832138 
3389.000000	98.850536 
3388.000000	98.854587 
3387.000000	98.844042 
3386.000000	98.826864 
3385.000000	98.815181 
3384.000000	98.817345 
3383.000000	98.830192 
3382.000000	98.840535 
3381.000000	98.837536 
3380.000000	98.823495 
3379.000000	98.810925 
3378.000000	98.809270 
3377.000000	98.816174 
3376.000000	98.821285 
3375.000000	98.816933 
3374.000000	98.805122 
3373.000000	98.795668 
3372.000000	98.797733 
3371.000000	98.811975 
3370.000000	98.830467 
3369.000000	98.844166 
3368.000000	98.849894 
3367.000000	98.850097 
3366.000000	98.848058 
3365.000000	98.845252 
3364.000000	98.842304 
3363.000000	98.839832 
3362.000000	98.837610 
3361.000000	98.834264 
3360.000000	98.828473 
3359.000000	98.820065 
3358.000000	98.809964 
3357.000000	98.799593 
3356.000000	98.790060 
3355.000000	98.781077 
3354.000000	98.770698 
3353.000000	98.757048 
3352.000000	98.740963 
3351.000000	98.726923 
3350.000000	98.720712 
3349.000000	98.724882 
3348.000000	98.735382 
3347.000000	98.743208 
3346.000000	98.741531 
3345.000000	98.732253 
3344.000000	98.724597 
3343.000000	98.725906 
3342.000000	98.733707 
3341.000000	98.737314 
3340.000000	98.727259 
3339.000000	98.703543 
3338.000000	98.675310 
3337.000000	98.652935 
3336.000000	98.640577 
3335.000000	98.636180 
3334.000000	98.636887 
3333.000000	98.641046 
3332.000000	98.644386 
3331.000000	98.639077 
3330.000000	98.621644 
3329.000000	98.600042 
3328.000000	98.587082 
3327.000000	98.585874 
3326.000000	98.586962 
3325.000000	98.581615 
3324.000000	98.572483 
3323.000000	98.567248 
3322.000000	98.565703 
3321.000000	98.558842 
3320.000000	98.539502 
3319.000000	98.509585 
3318.000000	98.476900 
3317.000000	98.448521 
3316.000000	98.427685 
3315.000000	98.414011 
3314.000000	98.405208 
3313.000000	98.399449 
3312.000000	98.395817 
3311.000000	98.391418 
3310.000000	98.379713 
3309.000000	98.355047 
3308.000000	98.319063 
3307.000000	98.279920 
3306.000000	98.244511 
3305.000000	98.213612 
3304.000000	98.185272 
3303.000000	98.160029 
3302.000000	98.140373 
3301.000000	98.125998 
3300.000000	98.111626 
3299.000000	98.090013 
3298.000000	98.056789 
3297.000000	98.013280 
3296.000000	97.966033 
3295.000000	97.923732 
3294.000000	97.892935 
3293.000000	97.874645 
3292.000000	97.863824 
3291.000000	97.852658 
3290.000000	97.835614 
3289.000000	97.812424 
3288.000000	97.786683 
3287.000000	97.761631 
3286.000000	97.736800 
3285.000000	97.708146 
3284.000000	97.671639 
3283.000000	97.627968 
3282.000000	97.584423 
3281.000000	97.551026 
3280.000000	97.533183 
3279.000000	97.527817 
3278.000000	97.526879 
3277.000000	97.523894 
3276.000000	97.516770 
3275.000000	97.506020 
3274.000000	97.492281 
3273.000000	97.474844 
3272.000000	97.450842 
3271.000000	97.416840 
3270.000000	97.373601 
3269.000000	97.328699 
3268.000000	97.291471 
3267.000000	97.264896 
3266.000000	97.244562 
3265.000000	97.225577 
3264.000000	97.207761 
3263.000000	97.193446 
3262.000000	97.183063 
3261.000000	97.174350 
3260.000000	97.163658 
3259.000000	97.146761 
3258.000000	97.120514 
3257.000000	97.085470 
3256.000000	97.045516 
3255.000000	97.003883 
3254.000000	96.961036 
3253.000000	96.917257 
3252.000000	96.875028 
3251.000000	96.837081 
3250.000000	96.803417 
3249.000000	96.771720 
3248.000000	96.739646 
3247.000000	96.705864 
3246.000000	96.670502 
3245.000000	96.635966 
3244.000000	96.605982 
3243.000000	96.582017 
3242.000000	96.560717 
3241.000000	96.535242 
3240.000000	96.498917 
3239.000000	96.449069 
3238.000000	96.390093 
3237.000000	96.332832 
3236.000000	96.287511 
3235.000000	96.255112 
3234.000000	96.226961 
3233.000000	96.193349 
3232.000000	96.150733 
3231.000000	96.100892 
3230.000000	96.047400 
3229.000000	95.995155 
3228.000000	95.949426 
3227.000000	95.911060 
3226.000000	95.874192 
3225.000000	95.832493 
3224.000000	95.787432 
3223.000000	95.747567 
3222.000000	95.719336 
3221.000000	95.700030 
3220.000000	95.679528 
3219.000000	95.647788 
3218.000000	95.601525 
3217.000000	95.545654 
3216.000000	95.488871 
3215.000000	95.437358 
3214.000000	95.392586 
3213.000000	95.354142 
3212.000000	95.321650 
3211.000000	95.292295 
3210.000000	95.259150 
3209.000000	95.215722 
3208.000000	95.162289 
3207.000000	95.105335 
3206.000000	95.050123 
3205.000000	94.995450 
3204.000000	94.936450 
3203.000000	94.871385 
3202.000000	94.804079 
3201.000000	94.739331 
3200.000000	94.677366 
3199.000000	94.614903 
3198.000000	94.551673 
3197.000000	94.492393 
3196.000000	94.439316 
3195.000000	94.385142 
3194.000000	94.318127 
3193.000000	94.234655 
3192.000000	94.143038 
3191.000000	94.053905 
3190.000000	93.970212 
3189.000000	93.887904 
3188.000000	93.802189 
3187.000000	93.710116 
3186.000000	93.610158 
3185.000000	93.503903 
3184.000000	93.397863 
3183.000000	93.300058 
3182.000000	93.213170 
3181.000000	93.131665 
3180.000000	93.046069 
3179.000000	92.950465 
3178.000000	92.846365 
3177.000000	92.738941 
3176.000000	92.629280 
3175.000000	92.512384 
3174.000000	92.385082 
3173.000000	92.254063 
3172.000000	92.131957 
3171.000000	92.025229 
3170.000000	91.929694 
3169.000000	91.838253 
3168.000000	91.748266 
3167.000000	91.659334 
3166.000000	91.568412 
3165.000000	91.471075 
3164.000000	91.365698 
3163.000000	91.253945 
3162.000000	91.139156 
3161.000000	91.026126 
3160.000000	90.919589 
3159.000000	90.819944 
3158.000000	90.722318 
3157.000000	90.622111 
3156.000000	90.519104 
3155.000000	90.413708 
3154.000000	90.302396 
3153.000000	90.181271 
3152.000000	90.052697 
3151.000000	89.923917 
3150.000000	89.799173 
3149.000000	89.676624 
3148.000000	89.552995 
3147.000000	89.427835 
3146.000000	89.302410 
3145.000000	89.177248 
3144.000000	89.052266 
3143.000000	88.927788 
3142.000000	88.804237 
3141.000000	88.681404 
3140.000000	88.558394 
3139.000000	88.433832 
3138.000000	88.306350 
3137.000000	88.175780 
3136.000000	88.043768 
3135.000000	87.912245 
3134.000000	87.780755 
3133.000000	87.645319 
3132.000000	87.500192 
3131.000000	87.341722 
3130.000000	87.171760 
3129.000000	86.997246 
3128.000000	86.825137 
3127.000000	86.657074 
3126.000000	86.489216 
3125.000000	86.316152 
3124.000000	86.133313 
3123.000000	85.937168 
3122.000000	85.727302 
3121.000000	85.509358 
3120.000000	85.292078 
3119.000000	85.078555 
3118.000000	84.861828 
3117.000000	84.631018 
3116.000000	84.380636 
3115.000000	84.113005 
3114.000000	83.834313 
3113.000000	83.550994 
3112.000000	83.267986 
3111.000000	82.986744 
3110.000000	82.704350 
3109.000000	82.416441 
3108.000000	82.121545 
3107.000000	81.822119 
3106.000000	81.522070 
3105.000000	81.224336 
3104.000000	80.930132 
3103.000000	80.639123 
3102.000000	80.350345 
3101.000000	80.063453 
3100.000000	79.778439 
3099.000000	79.493839 
3098.000000	79.206989 
3097.000000	78.918184 
3096.000000	78.634240 
3095.000000	78.365377 
3094.000000	78.116567 
3093.000000	77.882180 
3092.000000	77.650575 
3091.000000	77.415013 
3090.000000	77.179628 
3089.000000	76.953612 
3088.000000	76.740402 
3087.000000	76.534977 
3086.000000	76.331915 
3085.000000	76.132725 
3084.000000	75.943082 
3083.000000	75.765588 
3082.000000	75.598297 
3081.000000	75.438597 
3080.000000	75.285250 
3079.000000	75.137791 
3078.000000	74.997441 
3077.000000	74.867915 
3076.000000	74.751676 
3075.000000	74.645599 
3074.000000	74.543982 
3073.000000	74.446027 
3072.000000	74.356691 
3071.000000	74.279337 
3070.000000	74.211344 
3069.000000	74.148544 
3068.000000	74.090792 
3067.000000	74.040705 
3066.000000	73.998842 
3065.000000	73.962266 
3064.000000	73.926755 
3063.000000	73.889395 
3062.000000	73.850974 
3061.000000	73.817669 
3060.000000	73.798621 
3059.000000	73.798930 
3058.000000	73.814563 
3057.000000	73.835328 
3056.000000	73.853459 
3055.000000	73.869245 
3054.000000	73.888678 
3053.000000	73.916418 
3052.000000	73.951189 
3051.000000	73.987795 
3050.000000	74.022935 
3049.000000	74.058126 
3048.000000	74.096877 
3047.000000	74.140305 
3046.000000	74.186068 
3045.000000	74.229819 
3044.000000	74.266317 
3043.000000	74.291038 
3042.000000	74.303409 
3041.000000	74.308138 
3040.000000	74.311178 
3039.000000	74.314236 
3038.000000	74.314541 
3037.000000	74.309173 
3036.000000	74.297475 
3035.000000	74.279486 
3034.000000	74.254505 
3033.000000	74.222110 
3032.000000	74.183530 
3031.000000	74.141970 
3030.000000	74.102600 
3029.000000	74.071414 
3028.000000	74.051762 
3027.000000	74.041269 
3026.000000	74.033332 
3025.000000	74.022166 
3024.000000	74.006176 
3023.000000	73.987617 
3022.000000	73.970505 
3021.000000	73.957960 
3020.000000	73.949264 
3019.000000	73.939602 
3018.000000	73.924455 
3017.000000	73.904071 
3016.000000	73.882081 
3015.000000	73.860498 
3014.000000	73.838609 
3013.000000	73.816449 
3012.000000	73.796605 
3011.000000	73.781649 
3010.000000	73.771117 
3009.000000	73.760806 
3008.000000	73.742997 
3007.000000	73.707498 
3006.000000	73.645382 
3005.000000	73.553998 
3004.000000	73.439641 
3003.000000	73.317637 
3002.000000	73.212074 
3001.000000	73.152541 
3000.000000	73.163116 
2999.000000	73.247885 
2998.000000	73.384487 
2997.000000	73.531230 
2996.000000	73.639872 
2995.000000	73.666294 
2994.000000	73.579858 
2993.000000	73.374549 
2992.000000	73.077451 
2991.000000	72.744403 
2990.000000	72.441090 
2989.000000	72.218663 
2988.000000	72.099091 
2987.000000	72.078482 
2986.000000	72.141591 
2985.000000	72.272718 
2984.000000	72.455348 
2983.000000	72.668244 
2982.000000	72.888015 
2981.000000	73.096993 
2980.000000	73.288276 
2979.000000	73.464088 
2978.000000	73.630991 
2977.000000	73.795181 
2976.000000	73.959451 
2975.000000	74.123958 
2974.000000	74.291069 
2973.000000	74.468565 
2972.000000	74.665445 
2971.000000	74.883706 
2970.000000	75.115104 
2969.000000	75.346040 
2968.000000	75.564688 
2967.000000	75.765215 
2966.000000	75.948697 
2965.000000	76.121475 
2964.000000	76.290156 
2963.000000	76.455245 
2962.000000	76.608673 
2961.000000	76.738164 
2960.000000	76.834572 
2959.000000	76.896327 
2958.000000	76.927952 
2957.000000	76.934473 
2956.000000	76.916457 
2955.000000	76.870054 
2954.000000	76.791844 
2953.000000	76.683335 
2952.000000	76.550778 
2951.000000	76.401898 
2950.000000	76.243684 
2949.000000	76.081892 
2948.000000	75.920543 
2947.000000	75.761383 
2946.000000	75.604540 
2945.000000	75.450019 
2944.000000	75.298792 
2943.000000	75.153466 
2942.000000	75.018276 
2941.000000	74.897325 
2940.000000	74.792444 
2939.000000	74.703817 
2938.000000	74.632806 
2937.000000	74.581876 
2936.000000	74.550992 
2935.000000	74.536552 
2934.000000	74.535683 
2933.000000	74.549410 
2932.000000	74.579619 
2931.000000	74.624427 
2930.000000	74.678667 
2929.000000	74.737688 
2928.000000	74.799318 
2927.000000	74.863915 
2926.000000	74.934525 
2925.000000	75.015281 
2924.000000	75.107281 
2923.000000	75.206972 
2922.000000	75.309777 
2921.000000	75.413403 
2920.000000	75.516122 
2919.000000	75.614993 
2918.000000	75.709066 
2917.000000	75.802494 
2916.000000	75.901047 
2915.000000	76.006411 
2914.000000	76.116298 
2913.000000	76.228425 
2912.000000	76.340906 
2911.000000	76.449567 
2910.000000	76.548785 
2909.000000	76.635821 
2908.000000	76.712622 
2907.000000	76.783593 
2906.000000	76.853224 
2905.000000	76.924342 
2904.000000	76.995440 
2903.000000	77.060006 
2902.000000	77.111647 
2901.000000	77.150494 
2900.000000	77.182231 
2899.000000	77.211142 
2898.000000	77.236708 
2897.000000	77.257245 
2896.000000	77.273846 
2895.000000	77.289167 
2894.000000	77.303927 
2893.000000	77.315812 
2892.000000	77.321589 
2891.000000	77.320749 
2890.000000	77.318088 
2889.000000	77.321568 
2888.000000	77.335504 
2887.000000	77.355987 
2886.000000	77.375187 
2885.000000	77.390327 
2884.000000	77.406789 
2883.000000	77.432393 
2882.000000	77.470124 
2881.000000	77.516115 
2880.000000	77.563018 
2879.000000	77.605542 
2878.000000	77.644243 
2877.000000	77.684102 
2876.000000	77.728332 
2875.000000	77.774479 
2874.000000	77.818007 
2873.000000	77.858402 
2872.000000	77.899000 
2871.000000	77.941167 
2870.000000	77.981283 
2869.000000	78.013873 
2868.000000	78.036028 
2867.000000	78.048896 
2866.000000	78.056979 
2865.000000	78.065830 
2864.000000	78.077986 
2863.000000	78.090428 
2862.000000	78.097621 
2861.000000	78.097160 
2860.000000	78.091154 
2859.000000	78.082804 
2858.000000	78.074089 
2857.000000	78.066578 
2856.000000	78.061668 
2855.000000	78.059361 
2854.000000	78.058754 
2853.000000	78.060070 
2852.000000	78.064192 
2851.000000	78.069783 
2850.000000	78.073006 
2849.000000	78.071099 
2848.000000	78.064917 
2847.000000	78.057270 
2846.000000	78.049863 
2845.000000	78.042248 
2844.000000	78.032616 
2843.000000	78.019240 
2842.000000	78.002058 
2841.000000	77.982963 
2840.000000	77.963583 
2839.000000	77.942733 
2838.000000	77.916856 
2837.000000	77.882541 
2836.000000	77.837425 
2835.000000	77.779186 
2834.000000	77.705774 
2833.000000	77.617612 
2832.000000	77.518880 
2831.000000	77.415981 
2830.000000	77.314221 
2829.000000	77.214671 
2828.000000	77.113363 
2827.000000	77.004835 
2826.000000	76.887890 
2825.000000	76.767206 
2824.000000	76.648100 
2823.000000	76.531032 
2822.000000	76.413365 
2821.000000	76.295695 
2820.000000	76.183816 
2819.000000	76.083851 
2818.000000	75.997047 
2817.000000	75.919976 
2816.000000	75.848907 
2815.000000	75.783524 
2814.000000	75.726702 
2813.000000	75.680892 
2812.000000	75.645266 
2811.000000	75.617498 
2810.000000	75.597988 
2809.000000	75.590301 
2808.000000	75.596939 
2807.000000	75.616877 
2806.000000	75.648187 
2805.000000	75.690421 
2804.000000	75.742503 
2803.000000	75.800472 
2802.000000	75.859698 
2801.000000	75.917637 
2800.000000	75.971975 
2799.000000	76.017706 
2798.000000	76.049177 
2797.000000	76.064447 
2796.000000	76.065675 
2795.000000	76.056307 
2794.000000	76.040213 
2793.000000	76.021725 
2792.000000	76.002628 
2791.000000	75.979327 
2790.000000	75.946763 
2789.000000	75.906058 
2788.000000	75.865514 
2787.000000	75.832769 
2786.000000	75.807938 
2785.000000	75.785555 
2784.000000	75.761862 
2783.000000	75.739033 
2782.000000	75.723028 
2781.000000	75.718033 
2780.000000	75.722946 
2779.000000	75.733237 
2778.000000	75.746033 
2777.000000	75.762379 
2776.000000	75.784549 
2775.000000	75.813060 
2774.000000	75.847317 
2773.000000	75.886844 
2772.000000	75.929538 
2771.000000	75.970265 
2770.000000	76.004050 
2769.000000	76.030565 
2768.000000	76.053445 
2767.000000	76.075611 
2766.000000	76.097247 
2765.000000	76.117855 
2764.000000	76.137571 
2763.000000	76.155611 
2762.000000	76.169208 
2761.000000	76.175350 
2760.000000	76.173241 
2759.000000	76.164718 
2758.000000	76.152278 
2757.000000	76.136314 
2756.000000	76.114171 
2755.000000	76.082848 
2754.000000	76.043015 
2753.000000	75.999354 
2752.000000	75.956606 
2751.000000	75.916388 
2750.000000	75.877785 
2749.000000	75.838560 
2748.000000	75.795179 
2747.000000	75.744777 
2746.000000	75.689175 
2745.000000	75.634314 
2744.000000	75.582849 
2743.000000	75.529317 
2742.000000	75.465823 
2741.000000	75.391355 
2740.000000	75.312203 
2739.000000	75.233692 
2738.000000	75.154768 
2737.000000	75.071145 
2736.000000	74.981452 
2735.000000	74.889382 
2734.000000	74.801329 
2733.000000	74.722798 
2732.000000	74.656688 
2731.000000	74.604652 
2730.000000	74.569059 
2729.000000	74.551865 
2728.000000	74.551864 
2727.000000	74.565931 
2726.000000	74.594082 
2725.000000	74.640635 
2724.000000	74.708662 
2723.000000	74.795625 
2722.000000	74.896316 
2721.000000	75.007530 
2720.000000	75.127541 
2719.000000	75.253710 
2718.000000	75.384348 
2717.000000	75.521917 
2716.000000	75.671319 
2715.000000	75.835217 
2714.000000	76.012862 
2713.000000	76.202066 
2712.000000	76.399677 
2711.000000	76.600955 
2710.000000	76.801443 
2709.000000	76.999827 
2708.000000	77.197874 
2707.000000	77.398343 
2706.000000	77.603789 
2705.000000	77.815095 
2704.000000	78.028845 
2703.000000	78.238303 
2702.000000	78.440192 
2701.000000	78.639056 
2700.000000	78.841372 
2699.000000	79.046435 
2698.000000	79.247105 
2697.000000	79.439222 
2696.000000	79.626113 
2695.000000	79.813091 
2694.000000	80.001535 
2693.000000	80.190241 
2692.000000	80.379454 
2691.000000	80.570833 
2690.000000	80.764782 
2689.000000	80.959705 
2688.000000	81.153332 
2687.000000	81.343890 
2686.000000	81.530964 
2685.000000	81.716155 
2684.000000	81.901966 
2683.000000	82.088836 
2682.000000	82.273382 
2681.000000	82.450350 
2680.000000	82.616569 
2679.000000	82.772959 
2678.000000	82.922251 
2677.000000	83.064235 
2676.000000	83.193579 
2675.000000	83.303506 
2674.000000	83.391252 
2673.000000	83.458078 
2672.000000	83.504129 
2671.000000	83.526884 
2670.000000	83.526648 
2669.000000	83.510280 
2668.000000	83.485340 
2667.000000	83.451589 
2666.000000	83.401761 
2665.000000	83.330739 
2664.000000	83.241385 
2663.000000	83.141839 
2662.000000	83.040280 
2661.000000	82.942962 
2660.000000	82.854530 
2659.000000	82.777825 
2658.000000	82.713191 
2657.000000	82.658448 
2656.000000	82.610590 
2655.000000	82.569108 
2654.000000	82.537490 
2653.000000	82.519058 
2652.000000	82.511176 
2651.000000	82.506735 
2650.000000	82.502099 
2649.000000	82.498946 
2648.000000	82.495929 
2647.000000	82.483742 
2646.000000	82.453425 
2645.000000	82.406218 
2644.000000	82.349728 
2643.000000	82.286622 
2642.000000	82.212227 
2641.000000	82.121089 
2640.000000	82.009636 
2639.000000	81.873662 
2638.000000	81.710004 
2637.000000	81.521523 
2636.000000	81.315143 
2635.000000	81.094563 
2634.000000	80.859803 
2633.000000	80.614013 
2632.000000	80.364971 
2631.000000	80.118322 
2630.000000	79.873803 
2629.000000	79.629309 
2628.000000	79.384925 
2627.000000	79.142396 
2626.000000	78.904641 
2625.000000	78.676317 
2624.000000	78.460882 
2623.000000	78.256400 
2622.000000	78.057606 
2621.000000	77.862026 
2620.000000	77.670435 
2619.000000	77.482090 
2618.000000	77.294552 
2617.000000	77.108882 
2616.000000	76.930462 
2615.000000	76.763233 
2614.000000	76.606070 
2613.000000	76.454904 
2612.000000	76.305093 
2611.000000	76.151975 
2610.000000	75.993471 
2609.000000	75.833353 
2608.000000	75.679257 
2607.000000	75.537033 
2606.000000	75.409069 
2605.000000	75.296897 
2604.000000	75.201961 
2603.000000	75.124167 
2602.000000	75.062575 
2601.000000	75.016854 
2600.000000	74.985720 
2599.000000	74.965753 
2598.000000	74.954991 
2597.000000	74.955891 
2596.000000	74.971319 
2595.000000	74.999783 
2594.000000	75.039043 
2593.000000	75.092920 
2592.000000	75.169891 
2591.000000	75.275494 
2590.000000	75.409695 
2589.000000	75.570291 
2588.000000	75.754708 
2587.000000	75.959452 
2586.000000	76.181833 
2585.000000	76.421661 
2584.000000	76.677941 
2583.000000	76.945100 
2582.000000	77.215755 
2581.000000	77.485465 
2580.000000	77.751272 
2579.000000	78.008168 
2578.000000	78.252085 
2577.000000	78.484705 
2576.000000	78.709866 
2575.000000	78.926172 
2574.000000	79.128572 
2573.000000	79.316384 
2572.000000	79.493777 
2571.000000	79.662413 
2570.000000	79.819900 
2569.000000	79.966670 
2568.000000	80.108821 
2567.000000	80.252162 
2566.000000	80.397422 
2565.000000	80.542244 
2564.000000	80.683968 
2563.000000	80.819843 
2562.000000	80.948742 
2561.000000	81.073826 
2560.000000	81.200657 
2559.000000	81.332850 
2558.000000	81.472185 
2557.000000	81.620419 
2556.000000	81.775731 
2555.000000	81.929614 
2554.000000	82.074471 
2553.000000	82.213785 
2552.000000	82.357111 
2551.000000	82.504227 
2550.000000	82.642121 
2549.000000	82.759947 
2548.000000	82.859677 
2547.000000	82.948611 
2546.000000	83.028249 
2545.000000	83.095463 
2544.000000	83.149456 
2543.000000	83.192292 
2542.000000	83.225965 
2541.000000	83.253499 
2540.000000	83.280465 
2539.000000	83.311151 
2538.000000	83.343770 
2537.000000	83.371324 
2536.000000	83.386483 
2535.000000	83.385974 
2534.000000	83.373453 
2533.000000	83.359120 
2532.000000	83.353460 
2531.000000	83.359691 
2530.000000	83.373408 
2529.000000	83.388446 
2528.000000	83.400032 
2527.000000	83.403722 
2526.000000	83.396404 
2525.000000	83.378970 
2524.000000	83.354015 
2523.000000	83.320679 
2522.000000	83.275803 
2521.000000	83.220005 
2520.000000	83.157876 
2519.000000	83.092007 
2518.000000	83.021967 
2517.000000	82.950137 
2516.000000	82.883833 
2515.000000	82.829984 
2514.000000	82.790598 
2513.000000	82.762923 
2512.000000	82.739840 
2511.000000	82.711182 
2510.000000	82.671198 
2509.000000	82.626712 
2508.000000	82.593506 
2507.000000	82.583063 
2506.000000	82.596311 
2505.000000	82.630176 
2504.000000	82.684645 
2503.000000	82.761026 
2502.000000	82.857400 
2501.000000	82.969223 
2500.000000	83.093603 
2499.000000	83.232169 
2498.000000	83.390006 
2497.000000	83.569797 
2496.000000	83.764646 
2495.000000	83.959088 
2494.000000	84.141330 
2493.000000	84.313227 
2492.000000	84.484429 
2491.000000	84.658653 
2490.000000	84.830621 
2489.000000	84.994817 
2488.000000	85.150790 
2487.000000	85.299529 
2486.000000	85.440354 
2485.000000	85.572513 
2484.000000	85.695678 
2483.000000	85.808600 
2482.000000	85.911053 
2481.000000	86.005827 
2480.000000	86.093958 
2479.000000	86.169804 
2478.000000	86.226947 
2477.000000	86.267187 
2476.000000	86.296369 
2475.000000	86.313232 
2474.000000	86.312348 
2473.000000	86.298762 
2472.000000	86.289540 
2471.000000	86.298029 
2470.000000	86.325709 
2469.000000	86.372243 
2468.000000	86.442756 
2467.000000	86.538360 
2466.000000	86.647580 
2465.000000	86.755811 
2464.000000	86.859517 
2463.000000	86.964790 
2462.000000	87.075692 
2461.000000	87.190741 
2460.000000	87.308897 
2459.000000	87.432349 
2458.000000	87.562217 
2457.000000	87.694178 
2456.000000	87.818867 
2455.000000	87.926761 
2454.000000	88.015569 
2453.000000	88.094339 
2452.000000	88.177865 
2451.000000	88.275291 
2450.000000	88.385403 
2449.000000	88.501676 
2448.000000	88.617445 
2447.000000	88.726273 
2446.000000	88.823058 
2445.000000	88.907148 
2444.000000	88.980629 
2443.000000	89.042755 
2442.000000	89.090750 
2441.000000	89.126869 
2440.000000	89.158839 
2439.000000	89.191637 
2438.000000	89.224774 
2437.000000	89.259904 
2436.000000	89.304462 
2435.000000	89.363303 
2434.000000	89.431096 
2433.000000	89.496647 
2432.000000	89.551671 
2431.000000	89.593329 
2430.000000	89.622744 
2429.000000	89.644456 
2428.000000	89.664386 
2427.000000	89.685955 
2426.000000	89.710078 
2425.000000	89.738257 
2424.000000	89.770954 
2423.000000	89.803531 
2422.000000	89.830534 
2421.000000	89.854954 
2420.000000	89.886202 
2419.000000	89.927435 
2418.000000	89.972578 
2417.000000	90.018418 
2416.000000	90.070996 
2415.000000	90.134869 
2414.000000	90.203352 
2413.000000	90.265876 
2412.000000	90.320075 
2411.000000	90.371286 
2410.000000	90.425468 
2409.000000	90.488710 
2408.000000	90.568208 
2407.000000	90.664884 
2406.000000	90.766540 
2405.000000	90.855657 
2404.000000	90.924570 
2403.000000	90.978686 
2402.000000	91.025563 
2401.000000	91.066195 
2400.000000	91.097782 
2399.000000	91.120895 
2398.000000	91.140946 
2397.000000	91.162686 
2396.000000	91.184279 
2395.000000	91.198736 
2394.000000	91.203080 
2393.000000	91.204729 
2392.000000	91.215514 
2391.000000	91.240038 
2390.000000	91.274304 
2389.000000	91.315634 
2388.000000	91.368216 
2387.000000	91.436445 
2386.000000	91.517326 
2385.000000	91.602792 
2384.000000	91.686897 
2383.000000	91.767685 
2382.000000	91.844062 
2381.000000	91.914258 
2380.000000	91.976956 
2379.000000	92.031724 
2378.000000	92.078289 
2377.000000	92.115169 
2376.000000	92.139677 
2375.000000	92.153808 
2374.000000	92.172153 
2373.000000	92.218468 
2372.000000	92.301048 
2371.000000	92.396228 
2370.000000	92.471025 
2369.000000	92.521059 
2368.000000	92.565412 
2367.000000	92.608135 
2366.000000	92.633429 
2365.000000	92.641921 
2364.000000	92.658313 
2363.000000	92.700350 
2362.000000	92.758314 
2361.000000	92.817241 
2360.000000	92.882115 
2359.000000	92.946003 
2358.000000	92.982222 
2357.000000	92.986742 
2356.000000	92.985744 
2355.000000	93.014983 
2354.000000	93.080709 
2353.000000	93.164435 
2352.000000	93.229777 
2351.000000	93.246830 
2350.000000	93.234463 
2349.000000	93.235068 
2348.000000	93.277971 
2347.000000	93.344810 
2346.000000	93.377734 
2345.000000	93.351738 
2344.000000	93.294610 
2343.000000	93.267453 
2342.000000	93.282931 
2341.000000	93.324044 
2340.000000	93.386011 
2339.000000	93.467995 
2338.000000	93.558288 
2337.000000	93.624899 
2336.000000	93.653970 
2335.000000	93.651034 
2334.000000	93.644004 
2333.000000	93.646636 
2332.000000	93.664963 
2331.000000	93.675484 
2330.000000	93.674610 
2329.000000	93.651437 
2328.000000	93.614482 
2327.000000	93.561411 
2326.000000	93.499811 
2325.000000	93.454421 
2324.000000	93.449984 
2323.000000	93.495017 
2322.000000	93.559628 
2321.000000	93.607974 
2320.000000	93.629628 
2319.000000	93.632122 
2318.000000	93.633288 
2317.000000	93.637942 
2316.000000	93.657550 
2315.000000	93.683626 
2314.000000	93.707455 
2313.000000	93.708278 
2312.000000	93.687544 
2311.000000	93.646638 
2310.000000	93.597614 
2309.000000	93.543256 
2308.000000	93.493415 
2307.000000	93.447677 
2306.000000	93.403350 
2305.000000	93.347873 
2304.000000	93.275369 
2303.000000	93.183529 
2302.000000	93.086448 
2301.000000	93.002430 
2300.000000	92.948261 
2299.000000	92.914736 
2298.000000	92.879459 
2297.000000	92.824317 
2296.000000	92.759895 
2295.000000	92.711209 
2294.000000	92.698167 
2293.000000	92.718454 
2292.000000	92.753296 
2291.000000	92.782930 
2290.000000	92.802175 
2289.000000	92.823016 
2288.000000	92.859785 
2287.000000	92.916263 
2286.000000	92.987083 
2285.000000	93.070005 
2284.000000	93.165479 
2283.000000	93.269742 
2282.000000	93.375264 
2281.000000	93.479898 
2280.000000	93.583109 
2279.000000	93.674836 
2278.000000	93.741613 
2277.000000	93.787400 
2276.000000	93.833863 
2275.000000	93.891398 
2274.000000	93.946255 
2273.000000	93.983730 
2272.000000	94.012642 
2271.000000	94.052273 
2270.000000	94.105048 
2269.000000	94.154493 
2268.000000	94.185634 
2267.000000	94.196593 
2266.000000	94.194087 
2265.000000	94.185878 
2264.000000	94.176473 
2263.000000	94.163641 
2262.000000	94.140013 
2261.000000	94.100805 
2260.000000	94.046764 
2259.000000	93.983614 
2258.000000	93.923407 
2257.000000	93.883548 
2256.000000	93.870945 
2255.000000	93.866818 
2254.000000	93.840220 
2253.000000	93.778529 
2252.000000	93.696863 
2251.000000	93.618535 
2250.000000	93.561883 
2249.000000	93.542612 
2248.000000	93.570233 
2247.000000	93.635649 
2246.000000	93.715997 
2245.000000	93.795226 
2244.000000	93.870014 
2243.000000	93.938219 
2242.000000	94.000064 
2241.000000	94.071621 
2240.000000	94.174867 
2239.000000	94.306859 
2238.000000	94.435979 
2237.000000	94.534779 
2236.000000	94.599654 
2235.000000	94.635559 
2234.000000	94.646550 
2233.000000	94.651888 
2232.000000	94.685541 
2231.000000	94.761766 
2230.000000	94.857687 
2229.000000	94.942689 
2228.000000	95.008529 
2227.000000	95.058766 
2226.000000	95.089566 
2225.000000	95.099441 
2224.000000	95.102886 
2223.000000	95.116767 
2222.000000	95.143121 
2221.000000	95.174699 
2220.000000	95.204058 
2219.000000	95.221058 
2218.000000	95.220576 
2217.000000	95.220176 
2216.000000	95.246847 
2215.000000	95.295847 
2214.000000	95.328857 
2213.000000	95.327954 
2212.000000	95.325013 
2211.000000	95.357479 
2210.000000	95.418822 
2209.000000	95.474804 
2208.000000	95.507806 
2207.000000	95.521585 
2206.000000	95.521044 
2205.000000	95.513481 
2204.000000	95.515759 
2203.000000	95.536309 
2202.000000	95.560102 
2201.000000	95.568687 
2200.000000	95.562164 
2199.000000	95.546093 
2198.000000	95.514988 
2197.000000	95.468995 
2196.000000	95.429655 
2195.000000	95.416317 
2194.000000	95.419340 
2193.000000	95.415573 
2192.000000	95.398490 
2191.000000	95.376615 
2190.000000	95.355982 
2189.000000	95.340584 
2188.000000	95.335516 
2187.000000	95.334300 
2186.000000	95.319800 
2185.000000	95.293049 
2184.000000	95.281081 
2183.000000	95.297113 
2182.000000	95.313987 
2181.000000	95.299363 
2180.000000	95.258654 
2179.000000	95.220691 
2178.000000	95.199381 
2177.000000	95.188637 
2176.000000	95.175331 
2175.000000	95.139105 
2174.000000	95.060698 
2173.000000	94.951041 
2172.000000	94.852010 
2171.000000	94.788683 
2170.000000	94.740637 
2169.000000	94.678034 
2168.000000	94.603181 
2167.000000	94.531090 
2166.000000	94.449864 
2165.000000	94.335645 
2164.000000	94.201993 
2163.000000	94.109454 
2162.000000	94.129276 
2161.000000	94.303267 
2160.000000	94.608646 
2159.000000	94.940719 
2158.000000	95.163342 
2157.000000	95.209358 
2156.000000	95.114724 
2155.000000	94.956686 
2154.000000	94.798675 
2153.000000	94.687943 
2152.000000	94.652212 
2151.000000	94.675967 
2150.000000	94.708086 
2149.000000	94.713882 
2148.000000	94.702753 
2147.000000	94.691891 
2146.000000	94.669567 
2145.000000	94.615357 
2144.000000	94.532800 
2143.000000	94.436737 
2142.000000	94.325829 
2141.000000	94.192051 
2140.000000	94.046266 
2139.000000	93.913557 
2138.000000	93.808512 
2137.000000	93.726649 
2136.000000	93.651879 
2135.000000	93.562726 
2134.000000	93.440106 
2133.000000	93.278902 
2132.000000	93.086100 
2131.000000	92.864602 
2130.000000	92.610236 
2129.000000	92.327996 
2128.000000	92.037559 
2127.000000	91.755752 
2126.000000	91.483550 
2125.000000	91.214682 
2124.000000	90.945994 
2123.000000	90.673870 
2122.000000	90.391629 
2121.000000	90.099847 
2120.000000	89.813832 
2119.000000	89.553613 
2118.000000	89.328408 
2117.000000	89.133452 
2116.000000	88.960006 
2115.000000	88.807048 
2114.000000	88.682969 
2113.000000	88.594391 
2112.000000	88.535363 
2111.000000	88.494661 
2110.000000	88.474169 
2109.000000	88.489639 
2108.000000	88.549226 
2107.000000	88.642277 
2106.000000	88.754731 
2105.000000	88.882020 
2104.000000	89.017691 
2103.000000	89.145137 
2102.000000	89.258738 
2101.000000	89.383731 
2100.000000	89.553845 
2099.000000	89.771244 
2098.000000	90.005273 
2097.000000	90.227930 
2096.000000	90.432881 
2095.000000	90.621089 
2094.000000	90.789550 
2093.000000	90.939040 
2092.000000	91.074230 
2091.000000	91.190122 
2090.000000	91.274853 
2089.000000	91.332685 
2088.000000	91.389249 
2087.000000	91.465527 
2086.000000	91.557761 
2085.000000	91.647802 
2084.000000	91.722116 
2083.000000	91.776596 
2082.000000	91.814904 
2081.000000	91.848306 
2080.000000	91.888575 
2079.000000	91.938681 
2078.000000	91.997784 
2077.000000	92.069612 
2076.000000	92.150921 
2075.000000	92.218274 
2074.000000	92.249889 
2073.000000	92.261544 
2072.000000	92.297532 
2071.000000	92.381555 
2070.000000	92.497844 
2069.000000	92.621659 
2068.000000	92.743549 
2067.000000	92.858509 
2066.000000	92.957801 
2065.000000	93.043250 
2064.000000	93.129065 
2063.000000	93.220757 
2062.000000	93.312174 
2061.000000	93.405300 
2060.000000	93.506666 
2059.000000	93.602128 
2058.000000	93.667881 
2057.000000	93.712783 
2056.000000	93.772157 
2055.000000	93.846618 
2054.000000	93.888523 
2053.000000	93.873672 
2052.000000	93.850387 
2051.000000	93.887910 
2050.000000	94.001495 
2049.000000	94.150764 
2048.000000	94.291184 
2047.000000	94.399286 
2046.000000	94.467212 
2045.000000	94.509175 
2044.000000	94.558134 
2043.000000	94.625998 
2042.000000	94.683476 
2041.000000	94.699183 
2040.000000	94.672995 
2039.000000	94.610669 
2038.000000	94.505658 
2037.000000	94.379497 
2036.000000	94.300303 
2035.000000	94.315802 
2034.000000	94.394731 
2033.000000	94.471190 
2032.000000	94.518672 
2031.000000	94.545524 
2030.000000	94.557816 
2029.000000	94.575595 
2028.000000	94.650975 
2027.000000	94.813872 
2026.000000	95.016192 
2025.000000	95.174238 
2024.000000	95.260685 
2023.000000	95.321270 
2022.000000	95.412735 
2021.000000	95.554150 
2020.000000	95.720929 
2019.000000	95.858248 
2018.000000	95.916572 
2017.000000	95.902995 
2016.000000	95.881526 
2015.000000	95.901294 
2014.000000	95.953738 
2013.000000	96.013889 
2012.000000	96.081679 
2011.000000	96.158008 
2010.000000	96.222460 
2009.000000	96.273475 
2008.000000	96.355633 
2007.000000	96.499003 
2006.000000	96.656369 
2005.000000	96.747253 
2004.000000	96.747539 
2003.000000	96.699078 
2002.000000	96.653000 
2001.000000	96.635253 
2000.000000	96.644308 
1999.000000	96.652786 
1998.000000	96.626444 
1997.000000	96.565451 
1996.000000	96.512894 
1995.000000	96.504917 
1994.000000	96.532966 
1993.000000	96.569679 
1992.000000	96.605868 
1991.000000	96.638542 
1990.000000	96.647561 
1989.000000	96.616641 
1988.000000	96.560783 
1987.000000	96.507336 
1986.000000	96.464065 
1985.000000	96.423463 
1984.000000	96.379246 
1983.000000	96.323045 
1982.000000	96.251443 
1981.000000	96.197081 
1980.000000	96.223360 
1979.000000	96.356326 
1978.000000	96.541009 
1977.000000	96.697633 
1976.000000	96.800054 
1975.000000	96.863982 
1974.000000	96.895434 
1973.000000	96.894174 
1972.000000	96.875846 
1971.000000	96.852170 
1970.000000	96.812924 
1969.000000	96.754518 
1968.000000	96.700544 
1967.000000	96.669314 
1966.000000	96.649290 
1965.000000	96.631858 
1964.000000	96.637361 
1963.000000	96.682571 
1962.000000	96.749272 
1961.000000	96.807859 
1960.000000	96.849910 
1959.000000	96.878190 
1958.000000	96.890794 
1957.000000	96.895651 
1956.000000	96.913390 
1955.000000	96.945815 
1954.000000	96.965783 
1953.000000	96.956242 
1952.000000	96.935477 
1951.000000	96.926753 
1950.000000	96.928836 
1949.000000	96.933430 
1948.000000	96.945842 
1947.000000	96.970251 
1946.000000	96.997992 
1945.000000	97.026926 
1944.000000	97.068502 
1943.000000	97.119189 
1942.000000	97.151553 
1941.000000	97.154431 
1940.000000	97.152059 
1939.000000	97.165016 
1938.000000	97.183382 
1937.000000	97.194652 
1936.000000	97.211180 
1935.000000	97.247936 
1934.000000	97.294198 
1933.000000	97.329652 
1932.000000	97.351624 
1931.000000	97.368278 
1930.000000	97.383385 
1929.000000	97.403536 
1928.000000	97.440032 
1927.000000	97.487243 
1926.000000	97.518326 
1925.000000	97.517928 
1924.000000	97.501385 
1923.000000	97.488799 
1922.000000	97.481135 
1921.000000	97.477350 
1920.000000	97.489778 
1919.000000	97.521817 
1918.000000	97.550462 
1917.000000	97.555733 
1916.000000	97.549510 
1915.000000	97.550035 
1914.000000	97.552360 
1913.000000	97.544501 
1912.000000	97.532964 
1911.000000	97.531401 
1910.000000	97.537052 
1909.000000	97.538678 
1908.000000	97.537233 
1907.000000	97.539167 
1906.000000	97.539793 
1905.000000	97.531497 
1904.000000	97.519355 
1903.000000	97.514666 
1902.000000	97.520237 
1901.000000	97.530710 
1900.000000	97.539143 
1899.000000	97.538208 
1898.000000	97.527285 
1897.000000	97.523513 
1896.000000	97.548278 
1895.000000	97.594611 
1894.000000	97.627499 
1893.000000	97.626923 
1892.000000	97.610729 
1891.000000	97.607078 
1890.000000	97.624083 
1889.000000	97.653835 
1888.000000	97.688755 
1887.000000	97.722144 
1886.000000	97.747961 
1885.000000	97.770818 
1884.000000	97.801039 
1883.000000	97.832166 
1882.000000	97.843550 
1881.000000	97.833794 
1880.000000	97.828834 
1879.000000	97.844539 
1878.000000	97.863981 
1877.000000	97.866164 
1876.000000	97.855239 
1875.000000	97.844732 
1874.000000	97.834881 
1873.000000	97.823892 
1872.000000	97.822325 
1871.000000	97.838015 
1870.000000	97.859935 
1869.000000	97.872698 
1868.000000	97.875703 
1867.000000	97.870859 
1866.000000	97.851710 
1865.000000	97.821750 
1864.000000	97.801361 
1863.000000	97.801242 
1862.000000	97.805670 
1861.000000	97.796381 
1860.000000	97.777266 
1859.000000	97.760223 
1858.000000	97.744406 
1857.000000	97.726273 
1856.000000	97.712723 
1855.000000	97.707079 
1854.000000	97.697646 
1853.000000	97.675617 
1852.000000	97.650439 
1851.000000	97.633607 
1850.000000	97.621108 
1849.000000	97.605533 
1848.000000	97.591320 
1847.000000	97.584004 
1846.000000	97.578037 
1845.000000	97.568701 
1844.000000	97.563597 
1843.000000	97.565796 
1842.000000	97.562569 
1841.000000	97.546955 
1840.000000	97.531248 
1839.000000	97.530972 
1838.000000	97.548075 
1837.000000	97.577543 
1836.000000	97.616168 
1835.000000	97.654613 
1834.000000	97.678467 
1833.000000	97.689250 
1832.000000	97.708932 
1831.000000	97.751111 
1830.000000	97.798742 
1829.000000	97.829564 
1828.000000	97.848015 
1827.000000	97.867055 
1826.000000	97.883020 
1825.000000	97.887932 
1824.000000	97.887551 
1823.000000	97.887089 
1822.000000	97.879004 
1821.000000	97.864177 
1820.000000	97.865124 
1819.000000	97.897542 
1818.000000	97.942895 
1817.000000	97.969907 
1816.000000	97.970345 
1815.000000	97.955104 
1814.000000	97.930643 
1813.000000	97.900099 
1812.000000	97.874501 
1811.000000	97.861244 
1810.000000	97.850856 
1809.000000	97.833347 
1808.000000	97.815660 
1807.000000	97.807739 
1806.000000	97.804425 
1805.000000	97.794857 
1804.000000	97.779374 
1803.000000	97.765638 
1802.000000	97.757448 
1801.000000	97.757599 
1800.000000	97.770521 
1799.000000	97.789730 
1798.000000	97.797699 
1797.000000	97.788451 
1796.000000	97.776358 
1795.000000	97.774837 
1794.000000	97.779673 
1793.000000	97.782051 
1792.000000	97.785994 
1791.000000	97.795639 
1790.000000	97.801273 
1789.000000	97.796985 
1788.000000	97.792603 
1787.000000	97.796937 
1786.000000	97.803288 
1785.000000	97.803519 
1784.000000	97.804537 
1783.000000	97.813785 
1782.000000	97.821510 
1781.000000	97.814695 
1780.000000	97.799875 
1779.000000	97.792787 
1778.000000	97.794011 
1777.000000	97.793037 
1776.000000	97.786577 
1775.000000	97.779240 
1774.000000	97.772582 
1773.000000	97.764324 
1772.000000	97.754189 
1771.000000	97.738816 
1770.000000	97.710389 
1769.000000	97.673333 
1768.000000	97.646439 
1767.000000	97.636866 
1766.000000	97.628045 
1765.000000	97.607061 
1764.000000	97.583065 
1763.000000	97.567847 
1762.000000	97.554313 
1761.000000	97.532833 
1760.000000	97.513463 
1759.000000	97.505519 
1758.000000	97.496665 
1757.000000	97.470843 
1756.000000	97.435374 
1755.000000	97.407771 
1754.000000	97.387262 
1753.000000	97.363550 
1752.000000	97.337710 
1751.000000	97.315801 
1750.000000	97.290970 
1749.000000	97.256426 
1748.000000	97.223159 
1747.000000	97.202213 
1746.000000	97.186295 
1745.000000	97.167564 
1744.000000	97.157267 
1743.000000	97.168157 
1742.000000	97.191749 
1741.000000	97.213454 
1740.000000	97.234684 
1739.000000	97.259776 
1738.000000	97.280254 
1737.000000	97.295095 
1736.000000	97.327919 
1735.000000	97.399935 
1734.000000	97.481741 
1733.000000	97.526503 
1732.000000	97.546969 
1731.000000	97.580165 
1730.000000	97.636237 
1729.000000	97.707950 
1728.000000	97.792660 
1727.000000	97.887538 
1726.000000	97.975871 
1725.000000	98.038726 
1724.000000	98.073443 
1723.000000	98.083941 
1722.000000	98.066332 
1721.000000	98.022511 
1720.000000	97.971691 
1719.000000	97.928185 
1718.000000	97.875993 
1717.000000	97.799546 
1716.000000	97.722114 
1715.000000	97.664513 
1714.000000	97.613634 
1713.000000	97.556720 
1712.000000	97.505729 
1711.000000	97.472379 
1710.000000	97.445721 
1709.000000	97.412391 
1708.000000	97.380950 
1707.000000	97.362506 
1706.000000	97.341796 
1705.000000	97.299113 
1704.000000	97.247874 
1703.000000	97.213704 
1702.000000	97.201613 
1701.000000	97.196095 
1700.000000	97.183178 
1699.000000	97.161586 
1698.000000	97.126596 
1697.000000	97.076810 
1696.000000	97.027059 
1695.000000	96.987712 
1694.000000	96.944932 
1693.000000	96.889935 
1692.000000	96.837440 
1691.000000	96.801557 
1690.000000	96.768971 
1689.000000	96.717709 
1688.000000	96.654975 
1687.000000	96.604839 
1686.000000	96.572264 
1685.000000	96.539259 
1684.000000	96.493937 
1683.000000	96.441892 
1682.000000	96.377652 
1681.000000	96.294876 
1680.000000	96.208526 
1679.000000	96.135635 
1678.000000	96.068223 
1677.000000	95.991046 
1676.000000	95.912897 
1675.000000	95.851237 
1674.000000	95.794037 
1673.000000	95.722801 
1672.000000	95.649116 
1671.000000	95.587224 
1670.000000	95.514745 
1669.000000	95.402835 
1668.000000	95.274398 
1667.000000	95.164515 
1666.000000	95.061610 
1665.000000	94.932319 
1664.000000	94.764887 
1663.000000	94.563893 
1662.000000	94.322534 
1661.000000	94.032978 
1660.000000	93.707183 
1659.000000	93.354651 
1658.000000	92.964902 
1657.000000	92.534782 
1656.000000	92.077870 
1655.000000	91.551292 
1654.000000	90.775040 
1653.000000	89.678566 
1652.000000	88.642625 
1651.000000	87.923285 
1650.000000	87.382545 
1649.000000	86.830754 
1648.000000	86.199954 
1647.000000	85.566412 
1646.000000	85.044018 
1645.000000	84.657246 
1644.000000	84.381671 
1643.000000	84.184238 
1642.000000	83.996876 
1641.000000	83.747699 
1640.000000	83.434767 
1639.000000	83.097160 
1638.000000	82.691921 
1637.000000	82.066179 
1636.000000	81.130940 
1635.000000	80.046177 
1634.000000	79.007671 
1633.000000	78.005751 
1632.000000	76.962527 
1631.000000	75.835739 
1630.000000	74.564511 
1629.000000	73.073072 
1628.000000	71.400703 
1627.000000	69.709122 
1626.000000	68.060950 
1625.000000	66.322026 
1624.000000	64.372989 
1623.000000	62.351315 
1622.000000	60.545301 
1621.000000	59.072089 
1620.000000	57.860481 
1619.000000	56.804871 
1618.000000	55.788933 
1617.000000	54.727116 
1616.000000	53.726044 
1615.000000	53.000336 
1614.000000	52.579554 
1613.000000	52.337748 
1612.000000	52.217027 
1611.000000	52.290214 
1610.000000	52.615749 
1609.000000	53.125073 
1608.000000	53.706007 
1607.000000	54.288968 
1606.000000	54.798853 
1605.000000	55.127236 
1604.000000	55.209055 
1603.000000	55.064834 
1602.000000	54.733642 
1601.000000	54.220807 
1600.000000	53.547798 
1599.000000	52.787112 
1598.000000	51.995455 
1597.000000	51.164005 
1596.000000	50.282151 
1595.000000	49.395130 
1594.000000	48.543380 
1593.000000	47.700009 
1592.000000	46.828562 
1591.000000	45.946640 
1590.000000	45.081964 
1589.000000	44.227009 
1588.000000	43.395446 
1587.000000	42.666014 
1586.000000	42.108884 
1585.000000	41.718663 
1584.000000	41.476265 
1583.000000	41.415697 
1582.000000	41.561895 
1581.000000	41.862418 
1580.000000	42.254785 
1579.000000	42.746432 
1578.000000	43.364902 
1577.000000	44.066454 
1576.000000	44.761141 
1575.000000	45.431744 
1574.000000	46.114936 
1573.000000	46.810599 
1572.000000	47.511183 
1571.000000	48.240255 
1570.000000	48.996975 
1569.000000	49.706977 
1568.000000	50.326810 
1567.000000	50.917228 
1566.000000	51.540465 
1565.000000	52.174032 
1564.000000	52.765360 
1563.000000	53.327607 
1562.000000	53.922899 
1561.000000	54.589550 
1560.000000	55.314853 
1559.000000	56.031736 
1558.000000	56.669816 
1557.000000	57.231659 
1556.000000	57.761255 
1555.000000	58.294869 
1554.000000	58.835253 
1553.000000	59.348949 
1552.000000	59.815478 
1551.000000	60.252236 
1550.000000	60.678231 
1549.000000	61.088471 
1548.000000	61.486256 
1547.000000	61.908515 
1546.000000	62.391831 
1545.000000	62.933490 
1544.000000	63.512437 
1543.000000	64.141103 
1542.000000	64.855303 
1541.000000	65.656234 
1540.000000	66.484858 
1539.000000	67.264782 
1538.000000	67.964004 
1537.000000	68.596489 
1536.000000	69.194706 
1535.000000	69.780900 
1534.000000	70.323746 
1533.000000	70.747791 
1532.000000	71.031059 
1531.000000	71.210470 
1530.000000	71.293962 
1529.000000	71.246810 
1528.000000	71.035369 
1527.000000	70.655502 
1526.000000	70.143009 
1525.000000	69.568188 
1524.000000	68.975955 
1523.000000	68.329430 
1522.000000	67.580361 
1521.000000	66.838098 
1520.000000	66.313940 
1519.000000	66.059213 
1518.000000	65.974754 
1517.000000	65.968713 
1516.000000	66.018658 
1515.000000	66.131529 
1514.000000	66.282853 
1513.000000	66.415176 
1512.000000	66.483257 
1511.000000	66.492425 
1510.000000	66.474906 
1509.000000	66.429087 
1508.000000	66.310440 
1507.000000	66.121909 
1506.000000	66.004408 
1505.000000	66.084760 
1504.000000	66.346882 
1503.000000	66.732522 
1502.000000	67.209159 
1501.000000	67.759660 
1500.000000	68.370637 
1499.000000	69.041556 
1498.000000	69.783721 
1497.000000	70.591155 
1496.000000	71.425350 
1495.000000	72.249046 
1494.000000	73.053884 
1493.000000	73.849231 
1492.000000	74.655479 
1491.000000	75.492037 
1490.000000	76.336117 
1489.000000	77.123719 
1488.000000	77.829439 
1487.000000	78.483457 
1486.000000	79.097808 
1485.000000	79.643849 
1484.000000	80.109637 
1483.000000	80.526835 
1482.000000	80.923686 
1481.000000	81.292452 
1480.000000	81.623320 
1479.000000	81.925299 
1478.000000	82.187209 
1477.000000	82.366934 
1476.000000	82.447507 
1475.000000	82.446458 
1474.000000	82.330618 
1473.000000	82.004305 
1472.000000	81.454927 
1471.000000	80.784642 
1470.000000	80.034475 
1469.000000	79.153401 
1468.000000	78.103004 
1467.000000	76.874561 
1466.000000	75.459371 
1465.000000	73.933486 
1464.000000	72.531428 
1463.000000	71.432647 
1462.000000	70.559511 
1461.000000	69.698719 
1460.000000	68.665764 
1459.000000	67.304278 
1458.000000	65.491470 
1457.000000	63.459189 
1456.000000	61.920640 
1455.000000	61.303111 
1454.000000	61.479481 
1453.000000	62.228983 
1452.000000	63.388241 
1451.000000	64.776933 
1450.000000	66.224170 
1449.000000	67.626141 
1448.000000	68.918724 
1447.000000	70.076866 
1446.000000	71.161892 
1445.000000	72.287121 
1444.000000	73.539860 
1443.000000	74.951139 
1442.000000	76.481215 
1441.000000	78.005203 
1440.000000	79.373615 
1439.000000	80.526966 
1438.000000	81.506883 
1437.000000	82.327135 
1436.000000	82.913713 
1435.000000	83.258500 
1434.000000	83.458628 
1433.000000	83.565668 
1432.000000	83.549485 
1431.000000	83.386334 
1430.000000	83.099834 
1429.000000	82.703805 
1428.000000	82.184388 
1427.000000	81.537159 
1426.000000	80.735951 
1425.000000	79.699728 
1424.000000	78.399920 
1423.000000	76.943677 
1422.000000	75.381165 
1421.000000	73.505361 
1420.000000	71.004192 
1419.000000	67.898828 
1418.000000	64.634612 
1417.000000	61.521139 
1416.000000	58.558008 
1415.000000	55.742886 
1414.000000	53.176333 
1413.000000	51.009471 
1412.000000	49.450519 
1411.000000	48.706939 
1410.000000	48.822868 
1409.000000	49.681790 
1408.000000	51.171848 
1407.000000	53.215717 
1406.000000	55.676732 
1405.000000	58.349558 
1404.000000	61.027365 
1403.000000	63.555571 
1402.000000	65.883909 
1401.000000	68.076480 
1400.000000	70.213170 
1399.000000	72.259553 
1398.000000	74.105401 
1397.000000	75.733663 
1396.000000	77.226250 
1395.000000	78.623924 
1394.000000	79.875914 
1393.000000	80.934889 
1392.000000	81.820098 
1391.000000	82.575744 
1390.000000	83.232306 
1389.000000	83.804127 
1388.000000	84.289615 
1387.000000	84.675113 
1386.000000	84.949202 
1385.000000	85.094249 
1384.000000	85.057068 
1383.000000	84.749769 
1382.000000	84.097481 
1381.000000	83.107151 
1380.000000	81.928501 
1379.000000	80.854171 
1378.000000	80.168248 
1377.000000	79.924399 
1376.000000	79.907742 
1375.000000	79.809921 
1374.000000	79.418739 
1373.000000	78.667951 
1372.000000	77.548374 
1371.000000	76.030254 
1370.000000	74.076049 
1369.000000	71.693039 
1368.000000	68.977403 
1367.000000	66.096754 
1366.000000	63.192548 
1365.000000	60.315710 
1364.000000	57.508084 
1363.000000	54.943423 
1362.000000	52.888756 
1361.000000	51.469987 
1360.000000	50.590533 
1359.000000	50.101700 
1358.000000	49.954323 
1357.000000	50.203454 
1356.000000	50.931155 
1355.000000	52.160694 
1354.000000	53.808499 
1353.000000	55.715289 
1352.000000	57.730243 
1351.000000	59.758669 
1350.000000	61.745223 
1349.000000	63.647893 
1348.000000	65.439612 
1347.000000	67.114774 
1346.000000	68.677946 
1345.000000	70.128161 
1344.000000	71.457797 
1343.000000	72.662817 
1342.000000	73.748579 
1341.000000	74.724394 
1340.000000	75.595294 
1339.000000	76.362720 
1338.000000	77.031774 
1337.000000	77.611454 
1336.000000	78.106936 
1335.000000	78.514339 
1334.000000	78.819744 
1333.000000	79.002189 
1332.000000	79.051722 
1331.000000	79.005181 
1330.000000	78.966923 
1329.000000	79.075500 
1328.000000	79.428678 
1327.000000	80.022734 
1326.000000	80.752182 
1325.000000	81.468275 
1324.000000	82.046647 
1323.000000	82.419633 
1322.000000	82.567785 
1321.000000	82.488820 
1320.000000	82.170438 
1319.000000	81.584727 
1318.000000	80.694783 
1317.000000	79.453747 
1316.000000	77.799022 
1315.000000	75.661543 
1314.000000	72.998518 
1313.000000	69.840850 
1312.000000	66.327150 
1311.000000	62.685097 
1310.000000	59.166011 
1309.000000	56.001006 
1308.000000	53.404474 
1307.000000	51.557122 
1306.000000	50.543648 
1305.000000	50.326344 
1304.000000	50.787210 
1303.000000	51.767176 
1302.000000	53.080110 
1301.000000	54.550755 
1300.000000	56.065966 
1299.000000	57.577077 
1298.000000	59.059515 
1297.000000	60.492793 
1296.000000	61.872473 
1295.000000	63.210024 
1294.000000	64.510053 
1293.000000	65.761115 
1292.000000	66.951470 
1291.000000	68.080442 
1290.000000	69.150984 
1289.000000	70.162315 
1288.000000	71.114820 
1287.000000	72.014527 
1286.000000	72.867473 
1285.000000	73.674304 
1284.000000	74.434809 
1283.000000	75.154763 
1282.000000	75.843963 
1281.000000	76.507995 
1280.000000	77.144758 
1279.000000	77.749409 
1278.000000	78.321038 
1277.000000	78.864042 
1276.000000	79.384257 
1275.000000	79.884574 
1274.000000	80.364086 
1273.000000	80.821583 
1272.000000	81.259562 
1271.000000	81.682432 
1270.000000	82.088941 
1269.000000	82.469714 
1268.000000	82.817256 
1267.000000	83.136918 
1266.000000	83.442145 
1265.000000	83.739414 
1264.000000	84.024622 
1263.000000	84.293763 
1262.000000	84.548097 
1261.000000	84.787286 
1260.000000	85.007390 
1259.000000	85.209585 
1258.000000	85.401619 
1257.000000	85.586403 
1256.000000	85.758270 
1255.000000	85.913856 
1254.000000	86.055335 
1253.000000	86.176937 
1252.000000	86.259820 
1251.000000	86.288589 
1250.000000	86.261688 
1249.000000	86.174251 
1248.000000	85.998706 
1247.000000	85.690572 
1246.000000	85.201854 
1245.000000	84.475911 
1244.000000	83.438570 
1243.000000	82.012143 
1242.000000	80.145956 
1241.000000	77.852000 
1240.000000	75.253569 
1239.000000	72.620046 
1238.000000	70.321877 
1237.000000	68.710492 
1236.000000	68.008276 
1235.000000	68.250607 
1234.000000	69.283634 
1233.000000	70.836025 
1232.000000	72.632085 
1231.000000	74.467664 
1230.000000	76.221324 
1229.000000	77.831848 
1228.000000	79.273664 
1227.000000	80.543722 
1226.000000	81.656796 
1225.000000	82.637327 
1224.000000	83.506100 
1223.000000	84.273553 
1222.000000	84.944342 
1221.000000	85.524788 
1220.000000	86.028121 
1219.000000	86.477588 
1218.000000	86.901199 
1217.000000	87.316423 
1216.000000	87.720990 
1215.000000	88.102005 
1214.000000	88.450178 
1213.000000	88.762328 
1212.000000	89.038768 
1211.000000	89.287034 
1210.000000	89.521681 
1209.000000	89.750993 
1208.000000	89.969092 
1207.000000	90.168696 
1206.000000	90.354686 
1205.000000	90.536582 
1204.000000	90.715598 
1203.000000	90.888959 
1202.000000	91.058694 
1201.000000	91.224604 
1200.000000	91.376011 
1199.000000	91.503919 
1198.000000	91.617150 
1197.000000	91.734930 
1196.000000	91.867003 
1195.000000	92.009443 
1194.000000	92.153604 
1193.000000	92.290100 
1192.000000	92.411344 
1191.000000	92.520979 
1190.000000	92.634326 
1189.000000	92.759061 
1188.000000	92.882429 
1187.000000	92.987969 
1186.000000	93.077414 
1185.000000	93.164784 
1184.000000	93.256649 
1183.000000	93.350329 
1182.000000	93.443207 
1181.000000	93.530180 
1180.000000	93.598607 
1179.000000	93.639974 
1178.000000	93.662043 
1177.000000	93.677663 
1176.000000	93.687180 
1175.000000	93.681988 
1174.000000	93.657141 
1173.000000	93.608507 
1172.000000	93.526236 
1171.000000	93.405240 
1170.000000	93.255405 
1169.000000	93.087973 
1168.000000	92.897707 
1167.000000	92.669608 
1166.000000	92.394849 
1165.000000	92.066292 
1164.000000	91.663160 
1163.000000	91.150349 
1162.000000	90.487100 
1161.000000	89.630216 
1160.000000	88.542791 
1159.000000	87.215720 
1158.000000	85.677456 
1157.000000	83.982397 
1156.000000	82.210042 
1155.000000	80.483323 
1154.000000	78.965522 
1153.000000	77.820811 
1152.000000	77.170150 
1151.000000	77.059993 
1150.000000	77.449350 
1149.000000	78.235814 
1148.000000	79.308357 
1147.000000	80.574484 
1146.000000	81.946181 
1145.000000	83.325828 
1144.000000	84.623034 
1143.000000	85.784373 
1142.000000	86.800894 
1141.000000	87.686707 
1140.000000	88.456925 
1139.000000	89.125596 
1138.000000	89.708203 
1137.000000	90.212302 
1136.000000	90.632387 
1135.000000	90.965025 
1134.000000	91.223823 
1133.000000	91.430274 
1132.000000	91.595801 
1131.000000	91.720025 
1130.000000	91.797167 
1129.000000	91.813045 
1128.000000	91.741112 
1127.000000	91.548273 
1126.000000	91.196886 
1125.000000	90.634370 
1124.000000	89.789839 
1123.000000	88.584317 
1122.000000	86.928367 
1121.000000	84.706111 
1120.000000	81.797879 
1119.000000	78.166782 
1118.000000	73.955065 
1117.000000	69.526835 
1116.000000	65.433326 
1115.000000	62.267895 
1114.000000	60.438133 
1113.000000	60.033813 
1112.000000	60.901563 
1111.000000	62.785108 
1110.000000	65.380341 
1109.000000	68.345544 
1108.000000	71.348900 
1107.000000	74.138860 
1106.000000	76.581236 
1105.000000	78.640434 
1104.000000	80.334748 
1103.000000	81.709118 
1102.000000	82.828353 
1101.000000	83.767735 
1100.000000	84.597897 
1099.000000	85.371897 
1098.000000	86.112432 
1097.000000	86.807842 
1096.000000	87.434587 
1095.000000	87.989736 
1094.000000	88.490475 
1093.000000	88.942544 
1092.000000	89.332963 
1091.000000	89.662684 
1090.000000	89.961851 
1089.000000	90.257064 
1088.000000	90.544362 
1087.000000	90.809547 
1086.000000	91.053055 
1085.000000	91.276831 
1084.000000	91.469293 
1083.000000	91.627058 
1082.000000	91.774072 
1081.000000	91.935290 
1080.000000	92.105657 
1079.000000	92.266517 
1078.000000	92.417998 
1077.000000	92.572632 
1076.000000	92.730590 
1075.000000	92.884558 
1074.000000	93.037112 
1073.000000	93.190228 
1072.000000	93.328500 
1071.000000	93.435900 
1070.000000	93.521594 
1069.000000	93.609526 
1068.000000	93.710487 
1067.000000	93.820587 
1066.000000	93.934783 
1065.000000	94.043941 
1064.000000	94.131327 
1063.000000	94.191948 
1062.000000	94.245051 
1061.000000	94.310211 
1060.000000	94.383274 
1059.000000	94.451548 
1058.000000	94.516669 
1057.000000	94.583717 
1056.000000	94.644462 
1055.000000	94.693509 
1054.000000	94.746180 
1053.000000	94.816208 
1052.000000	94.888737 
1051.000000	94.943084 
1050.000000	94.991858 
1049.000000	95.067478 
1048.000000	95.179782 
1047.000000	95.315520 
1046.000000	95.467314 
1045.000000	95.634277 
1044.000000	95.802517 
1043.000000	95.949579 
1042.000000	96.063204 
1041.000000	96.137627 
1040.000000	96.161276 
1039.000000	96.130289 
1038.000000	96.066281 
1037.000000	95.999654 
1036.000000	95.942782 
1035.000000	95.895229 
1034.000000	95.858775 
1033.000000	95.823256 
1032.000000	95.749317 
1031.000000	95.588732 
1030.000000	95.312320 
1029.000000	94.896725 
1028.000000	94.295696 
1027.000000	93.445025 
1026.000000	92.278743 
1025.000000	90.720399 
1024.000000	88.695590 
1023.000000	86.214334 
1022.000000	83.445697 
1021.000000	80.663328 
1020.000000	78.074747 
1019.000000	75.674469 
1018.000000	73.256444 
1017.000000	70.614378 
1016.000000	67.795112 
1015.000000	65.184170 
1014.000000	63.320849 
1013.000000	62.594461 
1012.000000	63.075097 
1011.000000	64.556093 
1010.000000	66.707645 
1009.000000	69.218442 
1008.000000	71.852732 
1007.000000	74.435776 
1006.000000	76.835715 
1005.000000	78.969545 
1004.000000	80.808954 
1003.000000	82.373006 
1002.000000	83.712007 
1001.000000	84.879158 
1000.000000	85.901227 
999.000000	 86.778912 
998.000000	 87.517216 
997.000000	 88.143011 
996.000000	 88.688019 
995.000000	 89.168968 
994.000000	 89.592474 
993.000000	 89.967528 
992.000000	 90.303713 
991.000000	 90.604924 
990.000000	 90.872631 
989.000000	 91.110227 
988.000000	 91.319834 
987.000000	 91.500909 
986.000000	 91.655756 
985.000000	 91.791251 
984.000000	 91.913460 
983.000000	 92.026324 
982.000000	 92.136041 
981.000000	 92.249149 
980.000000	 92.363914 
979.000000	 92.469819 
978.000000	 92.558776 
977.000000	 92.633610 
976.000000	 92.704717 
975.000000	 92.781639 
974.000000	 92.867498 
973.000000	 92.957790 
972.000000	 93.043927 
971.000000	 93.118904 
970.000000	 93.177920 
969.000000	 93.214771 
968.000000	 93.225207 
967.000000	 93.216430 
966.000000	 93.203903 
965.000000	 93.192477 
964.000000	 93.169453 
963.000000	 93.124635 
962.000000	 93.069269 
961.000000	 93.024502 
960.000000	 92.996331 
959.000000	 92.972087 
958.000000	 92.937868 
957.000000	 92.889333 
956.000000	 92.826822 
955.000000	 92.749507 
954.000000	 92.656608 
953.000000	 92.550507 
952.000000	 92.438564 
951.000000	 92.332514 
950.000000	 92.242353 
949.000000	 92.170022 
948.000000	 92.113346 
947.000000	 92.074212 
946.000000	 92.054411 
945.000000	 92.044701 
944.000000	 92.029878 
943.000000	 92.005951 
942.000000	 91.978754 
941.000000	 91.940733 
940.000000	 91.861891 
939.000000	 91.710885 
938.000000	 91.476157 
937.000000	 91.165173 
936.000000	 90.801953 
935.000000	 90.435675 
934.000000	 90.132503 
933.000000	 89.936474 
932.000000	 89.835608 
931.000000	 89.765019 
930.000000	 89.631928 
929.000000	 89.337207 
928.000000	 88.793599 
927.000000	 87.941779 
926.000000	 86.745567 
925.000000	 85.171592 
924.000000	 83.203099 
923.000000	 80.906878 
922.000000	 78.494027 
921.000000	 76.312728 
920.000000	 74.770115 
919.000000	 74.198851 
918.000000	 74.708005 
917.000000	 76.122236 
916.000000	 78.075570 
915.000000	 80.187945 
914.000000	 82.195331 
913.000000	 83.969456 
912.000000	 85.468697 
911.000000	 86.700995 
910.000000	 87.712884 
909.000000	 88.563404 
908.000000	 89.286350 
907.000000	 89.887922 
906.000000	 90.376032 
905.000000	 90.767294 
904.000000	 91.063713 
903.000000	 91.246661 
902.000000	 91.301234 
901.000000	 91.232983 
900.000000	 91.065201 
899.000000	 90.843081 
898.000000	 90.640026 
897.000000	 90.533116 
896.000000	 90.560617 
895.000000	 90.711358 
894.000000	 90.952497 
893.000000	 91.252060 
892.000000	 91.577018 
891.000000	 91.895954 
890.000000	 92.198280 
889.000000	 92.496606 
888.000000	 92.798356 
887.000000	 93.086057 
886.000000	 93.334869 
885.000000	 93.538832 
884.000000	 93.710502 
883.000000	 93.864373 
882.000000	 94.009407 
881.000000	 94.149966 
880.000000	 94.285912 
879.000000	 94.415717 
878.000000	 94.541675 
877.000000	 94.665179 
876.000000	 94.776302 
875.000000	 94.858307 
874.000000	 94.904836 
873.000000	 94.923306 
872.000000	 94.920232 
871.000000	 94.893382 
870.000000	 94.839813 
869.000000	 94.761709 
868.000000	 94.661164 
867.000000	 94.534364 
866.000000	 94.369707 
865.000000	 94.146365 
864.000000	 93.837926 
863.000000	 93.421841 
862.000000	 92.876499 
861.000000	 92.158206 
860.000000	 91.186209 
859.000000	 89.859093 
858.000000	 88.078822 
857.000000	 85.754228 
856.000000	 82.811146 
855.000000	 79.248698 
854.000000	 75.214282 
853.000000	 71.031789 
852.000000	 67.156509 
851.000000	 64.065691 
850.000000	 62.123450 
849.000000	 61.503972 
848.000000	 62.203318 
847.000000	 64.061183 
846.000000	 66.758554 
845.000000	 69.865062 
844.000000	 72.962418 
843.000000	 75.764984 
842.000000	 78.160977 
841.000000	 80.166742 
840.000000	 81.846919 
839.000000	 83.263730 
838.000000	 84.468125 
837.000000	 85.501562 
836.000000	 86.391314 
835.000000	 87.151846 
834.000000	 87.796798 
833.000000	 88.345937 
832.000000	 88.820753 
831.000000	 89.239951 
830.000000	 89.619258 
829.000000	 89.969588 
828.000000	 90.296580 
827.000000	 90.606571 
826.000000	 90.907019 
825.000000	 91.194478 
824.000000	 91.453126 
823.000000	 91.677246 
822.000000	 91.882677 
821.000000	 92.080707 
820.000000	 92.255899 
819.000000	 92.389573 
818.000000	 92.493146 
817.000000	 92.596137 
816.000000	 92.707479 
815.000000	 92.810943 
814.000000	 92.897339 
813.000000	 92.978405 
812.000000	 93.063573 
811.000000	 93.143525 
810.000000	 93.207894 
809.000000	 93.265396 
808.000000	 93.334099 
807.000000	 93.418704 
806.000000	 93.506584 
805.000000	 93.583861 
804.000000	 93.650667 
803.000000	 93.720894 
802.000000	 93.805311 
801.000000	 93.892400 
800.000000	 93.951356 
799.000000	 93.962412 
798.000000	 93.941605 
797.000000	 93.925788 
796.000000	 93.933885 
795.000000	 93.950196 
794.000000	 93.942330 
793.000000	 93.886784 
792.000000	 93.779705 
791.000000	 93.633222 
790.000000	 93.462205 
789.000000	 93.266981 
788.000000	 93.027325 
787.000000	 92.715819 
786.000000	 92.314646 
785.000000	 91.817494 
784.000000	 91.220345 
783.000000	 90.511207 
782.000000	 89.658311 
781.000000	 88.604914 
780.000000	 87.289676 
779.000000	 85.684065 
778.000000	 83.809496 
777.000000	 81.727538 
776.000000	 79.539211 
775.000000	 77.400447 
774.000000	 75.514850 
773.000000	 74.097719 
772.000000	 73.345969 
771.000000	 73.407253 
770.000000	 74.318205 
769.000000	 75.949835 
768.000000	 78.032547 
767.000000	 80.260881 
766.000000	 82.400496 
765.000000	 84.324568 
764.000000	 85.983117 
763.000000	 87.367712 
762.000000	 88.501573 
761.000000	 89.427957 
760.000000	 90.185549 
759.000000	 90.799566 
758.000000	 91.295738 
757.000000	 91.706391 
756.000000	 92.057857 
755.000000	 92.363539 
754.000000	 92.631365 
753.000000	 92.869213 
752.000000	 93.086133 
751.000000	 93.298089 
750.000000	 93.524276 
749.000000	 93.763111 
748.000000	 93.981666 
747.000000	 94.150554 
746.000000	 94.284526 
745.000000	 94.424792 
744.000000	 94.582958 
743.000000	 94.727740 
742.000000	 94.830356 
741.000000	 94.899008 
740.000000	 94.961193 
739.000000	 95.032995 
738.000000	 95.114128 
737.000000	 95.194800 
736.000000	 95.259188 
735.000000	 95.298795 
734.000000	 95.330313 
733.000000	 95.384691 
732.000000	 95.470191 
731.000000	 95.560696 
730.000000	 95.628795 
729.000000	 95.675312 
728.000000	 95.718011 
727.000000	 95.765502 
726.000000	 95.813258 
725.000000	 95.856912 
724.000000	 95.896832 
723.000000	 95.932397 
722.000000	 95.960463 
721.000000	 95.980340 
720.000000	 95.996289 
719.000000	 96.011725 
718.000000	 96.022006 
717.000000	 96.016012 
716.000000	 95.985340 
715.000000	 95.932309 
714.000000	 95.865724 
713.000000	 95.788778 
712.000000	 95.701477 
711.000000	 95.615443 
710.000000	 95.550288 
709.000000	 95.507086 
708.000000	 95.458929 
707.000000	 95.377660 
706.000000	 95.255745 
705.000000	 95.096466 
704.000000	 94.904417 
703.000000	 94.700116 
702.000000	 94.523842 
701.000000	 94.399547 
700.000000	 94.304867 
699.000000	 94.203053 
698.000000	 94.094591 
697.000000	 94.011792 
696.000000	 93.968942 
695.000000	 93.945966 
694.000000	 93.926969 
693.000000	 93.925223 
692.000000	 93.955698 
691.000000	 94.005305 
690.000000	 94.044499 
689.000000	 94.059993 
688.000000	 94.064623 
687.000000	 94.075032 
686.000000	 94.085165 
685.000000	 94.065084 
684.000000	 93.994270 
683.000000	 93.898273 
682.000000	 93.834388 
681.000000	 93.830986 
680.000000	 93.859447 
679.000000	 93.885553 
678.000000	 93.922624 
677.000000	 93.999071 
676.000000	 94.097040 
675.000000	 94.170342 
674.000000	 94.204689 
673.000000	 94.221960 
672.000000	 94.230120 
671.000000	 94.203672 
670.000000	 94.107964 
669.000000	 93.930802 
668.000000	 93.692631 
667.000000	 93.402980 
666.000000	 93.114953 
665.000000	 92.830918 
664.000000	 92.489165 
663.000000	 92.044954 
662.000000	 91.468670 
661.000000	 90.719399 
660.000000	 89.742936 
659.000000	 88.507544 
658.000000	 87.011247 
657.000000	 85.238347 
656.000000	 83.171577 
655.000000	 80.866881 
654.000000	 78.436365 
653.000000	 75.974922 
652.000000	 73.609590 
651.000000	 71.545630 
650.000000	 69.908887 

