PE IR                   SPECTRUM    ASCII       PEDS        1.60        
  -1
~SP.SP
18/03/23
17:07:45.00
18/03/23
17:07:45.00
pili
Irradiada
650.000000
4









SPECTRUM 100,CPU32 MAIN 00.02.8200 12-DECEMBER-2006 10:00:00
MIR TGS
MIR
OPTKBR
78890
0.200000

4.000000
STRONG
RATIO
SPECTRUM
MAGNITUDE
UNIVERSAL ATR
DOUBLE

COMBINED


0


#HDR
-1
-1
#GR
CM-1
%T
0.00002384185791015625
0.0
4000.000000
-1.000000
3351
8
98.875759
50.011073
#DATA
4000.000000	98.110853 
3999.000000	98.108354 
3998.000000	98.105029 
3997.000000	98.104588 
3996.000000	98.107548 
3995.000000	98.112841 
3994.000000	98.120295 
3993.000000	98.130010 
3992.000000	98.139910 
3991.000000	98.145658 
3990.000000	98.143642 
3989.000000	98.133408 
3988.000000	98.117390 
3987.000000	98.099504 
3986.000000	98.084268 
3985.000000	98.075632 
3984.000000	98.074818 
3983.000000	98.079254 
3982.000000	98.084659 
3981.000000	98.088507 
3980.000000	98.091183 
3979.000000	98.093781 
3978.000000	98.095764 
3977.000000	98.095623 
3976.000000	98.093582 
3975.000000	98.092190 
3974.000000	98.093220 
3973.000000	98.094598 
3972.000000	98.092093 
3971.000000	98.084683 
3970.000000	98.076825 
3969.000000	98.074267 
3968.000000	98.078117 
3967.000000	98.084554 
3966.000000	98.089905 
3965.000000	98.094023 
3964.000000	98.097914 
3963.000000	98.099895 
3962.000000	98.096338 
3961.000000	98.086451 
3960.000000	98.074596 
3959.000000	98.067120 
3958.000000	98.066870 
3957.000000	98.071293 
3956.000000	98.075522 
3955.000000	98.077312 
3954.000000	98.079057 
3953.000000	98.085031 
3952.000000	98.097358 
3951.000000	98.114385 
3950.000000	98.132191 
3949.000000	98.147091 
3948.000000	98.157355 
3947.000000	98.163539 
3946.000000	98.167214 
3945.000000	98.169018 
3944.000000	98.168274 
3943.000000	98.164877 
3942.000000	98.160400 
3941.000000	98.155952 
3940.000000	98.150195 
3939.000000	98.141614 
3938.000000	98.132181 
3937.000000	98.127005 
3936.000000	98.128974 
3935.000000	98.134556 
3934.000000	98.136647 
3933.000000	98.131609 
3932.000000	98.123177 
3931.000000	98.118378 
3930.000000	98.120627 
3929.000000	98.127633 
3928.000000	98.133769 
3927.000000	98.133386 
3926.000000	98.124178 
3925.000000	98.110438 
3924.000000	98.101052 
3923.000000	98.101417 
3922.000000	98.108574 
3921.000000	98.115776 
3920.000000	98.119569 
3919.000000	98.121059 
3918.000000	98.121552 
3917.000000	98.120449 
3916.000000	98.117656 
3915.000000	98.115051 
3914.000000	98.113922 
3913.000000	98.113579 
3912.000000	98.112693 
3911.000000	98.111949 
3910.000000	98.113250 
3909.000000	98.117325 
3908.000000	98.121929 
3907.000000	98.122914 
3906.000000	98.117794 
3905.000000	98.109951 
3904.000000	98.109491 
3903.000000	98.125036 
3902.000000	98.152955 
3901.000000	98.177515 
3900.000000	98.184418 
3899.000000	98.173821 
3898.000000	98.157890 
3897.000000	98.147699 
3896.000000	98.145827 
3895.000000	98.149703 
3894.000000	98.155419 
3893.000000	98.158651 
3892.000000	98.155213 
3891.000000	98.146374 
3890.000000	98.138902 
3889.000000	98.137833 
3888.000000	98.140692 
3887.000000	98.139162 
3886.000000	98.129487 
3885.000000	98.120127 
3884.000000	98.122019 
3883.000000	98.135665 
3882.000000	98.151060 
3881.000000	98.157386 
3880.000000	98.153053 
3879.000000	98.144927 
3878.000000	98.139183 
3877.000000	98.136931 
3876.000000	98.135227 
3875.000000	98.131515 
3874.000000	98.129349 
3873.000000	98.136177 
3872.000000	98.152084 
3871.000000	98.164876 
3870.000000	98.163512 
3869.000000	98.153473 
3868.000000	98.147777 
3867.000000	98.149964 
3866.000000	98.152804 
3865.000000	98.149755 
3864.000000	98.142408 
3863.000000	98.137165 
3862.000000	98.137769 
3861.000000	98.144113 
3860.000000	98.151746 
3859.000000	98.154443 
3858.000000	98.148799 
3857.000000	98.138446 
3856.000000	98.131998 
3855.000000	98.133130 
3854.000000	98.133678 
3853.000000	98.129411 
3852.000000	98.126958 
3851.000000	98.130251 
3850.000000	98.137581 
3849.000000	98.147182 
3848.000000	98.158967 
3847.000000	98.172384 
3846.000000	98.184452 
3845.000000	98.191070 
3844.000000	98.189413 
3843.000000	98.181255 
3842.000000	98.171301 
3841.000000	98.161719 
3840.000000	98.149517 
3839.000000	98.133417 
3838.000000	98.119823 
3837.000000	98.118190 
3836.000000	98.130892 
3835.000000	98.151058 
3834.000000	98.168120 
3833.000000	98.174967 
3832.000000	98.172663 
3831.000000	98.168790 
3830.000000	98.169695 
3829.000000	98.175508 
3828.000000	98.180475 
3827.000000	98.178298 
3826.000000	98.167766 
3825.000000	98.153268 
3824.000000	98.139576 
3823.000000	98.127883 
3822.000000	98.115553 
3821.000000	98.103788 
3820.000000	98.099533 
3819.000000	98.104779 
3818.000000	98.113847 
3817.000000	98.119562 
3816.000000	98.123067 
3815.000000	98.132667 
3814.000000	98.149521 
3813.000000	98.164209 
3812.000000	98.168179 
3811.000000	98.162271 
3810.000000	98.153873 
3809.000000	98.147160 
3808.000000	98.139073 
3807.000000	98.129313 
3806.000000	98.127533 
3805.000000	98.143267 
3804.000000	98.173042 
3803.000000	98.198747 
3802.000000	98.201259 
3801.000000	98.183992 
3800.000000	98.167489 
3799.000000	98.162537 
3798.000000	98.164308 
3797.000000	98.163922 
3796.000000	98.159754 
3795.000000	98.156804 
3794.000000	98.158929 
3793.000000	98.165661 
3792.000000	98.175174 
3791.000000	98.185434 
3790.000000	98.193281 
3789.000000	98.195650 
3788.000000	98.192740 
3787.000000	98.188084 
3786.000000	98.184626 
3785.000000	98.181984 
3784.000000	98.178541 
3783.000000	98.174640 
3782.000000	98.172422 
3781.000000	98.173779 
3780.000000	98.178571 
3779.000000	98.185255 
3778.000000	98.190825 
3777.000000	98.190779 
3776.000000	98.181259 
3775.000000	98.163388 
3774.000000	98.144189 
3773.000000	98.131034 
3772.000000	98.124462 
3771.000000	98.119380 
3770.000000	98.114680 
3769.000000	98.117325 
3768.000000	98.132723 
3767.000000	98.154706 
3766.000000	98.168161 
3765.000000	98.162743 
3764.000000	98.142982 
3763.000000	98.123572 
3762.000000	98.117601 
3761.000000	98.130512 
3760.000000	98.157778 
3759.000000	98.185991 
3758.000000	98.200862 
3757.000000	98.199132 
3756.000000	98.189625 
3755.000000	98.182094 
3754.000000	98.177769 
3753.000000	98.171285 
3752.000000	98.160595 
3751.000000	98.151382 
3750.000000	98.149804 
3749.000000	98.155845 
3748.000000	98.167385 
3747.000000	98.181693 
3746.000000	98.190737 
3745.000000	98.186443 
3744.000000	98.177890 
3743.000000	98.179488 
3742.000000	98.188603 
3741.000000	98.194105 
3740.000000	98.191978 
3739.000000	98.188321 
3738.000000	98.188961 
3737.000000	98.191046 
3736.000000	98.190758 
3735.000000	98.193133 
3734.000000	98.202964 
3733.000000	98.211779 
3732.000000	98.206722 
3731.000000	98.186900 
3730.000000	98.164858 
3729.000000	98.154291 
3728.000000	98.159313 
3727.000000	98.173572 
3726.000000	98.187059 
3725.000000	98.191927 
3724.000000	98.185736 
3723.000000	98.173091 
3722.000000	98.163370 
3721.000000	98.163715 
3720.000000	98.172669 
3719.000000	98.182398 
3718.000000	98.186406 
3717.000000	98.186131 
3716.000000	98.188063 
3715.000000	98.195269 
3714.000000	98.203670 
3713.000000	98.206071 
3712.000000	98.199950 
3711.000000	98.190209 
3710.000000	98.183545 
3709.000000	98.181897 
3708.000000	98.183991 
3707.000000	98.189846 
3706.000000	98.201467 
3705.000000	98.218627 
3704.000000	98.234559 
3703.000000	98.238592 
3702.000000	98.226528 
3701.000000	98.208577 
3700.000000	98.200950 
3699.000000	98.210369 
3698.000000	98.228536 
3697.000000	98.241587 
3696.000000	98.242411 
3695.000000	98.233541 
3694.000000	98.221432 
3693.000000	98.212274 
3692.000000	98.210800 
3691.000000	98.216606 
3690.000000	98.221471 
3689.000000	98.216422 
3688.000000	98.203854 
3687.000000	98.195854 
3686.000000	98.201565 
3685.000000	98.219309 
3684.000000	98.240209 
3683.000000	98.257085 
3682.000000	98.267972 
3681.000000	98.272772 
3680.000000	98.272049 
3679.000000	98.268644 
3678.000000	98.264283 
3677.000000	98.251763 
3676.000000	98.221477 
3675.000000	98.183826 
3674.000000	98.162487 
3673.000000	98.168921 
3672.000000	98.197214 
3671.000000	98.230536 
3670.000000	98.252829 
3669.000000	98.260423 
3668.000000	98.258470 
3667.000000	98.252400 
3666.000000	98.246327 
3665.000000	98.243775 
3664.000000	98.246400 
3663.000000	98.252158 
3662.000000	98.256561 
3661.000000	98.257002 
3660.000000	98.255674 
3659.000000	98.255755 
3658.000000	98.255355 
3657.000000	98.246882 
3656.000000	98.227652 
3655.000000	98.206381 
3654.000000	98.196007 
3653.000000	98.204132 
3652.000000	98.228471 
3651.000000	98.255803 
3650.000000	98.268860 
3649.000000	98.262397 
3648.000000	98.248052 
3647.000000	98.240796 
3646.000000	98.246515 
3645.000000	98.262177 
3644.000000	98.281056 
3643.000000	98.297327 
3642.000000	98.308305 
3641.000000	98.314172 
3640.000000	98.315253 
3639.000000	98.310541 
3638.000000	98.300301 
3637.000000	98.287815 
3636.000000	98.276861 
3635.000000	98.268534 
3634.000000	98.263012 
3633.000000	98.263040 
3632.000000	98.272231 
3631.000000	98.288469 
3630.000000	98.299708 
3629.000000	98.296101 
3628.000000	98.284758 
3627.000000	98.276650 
3626.000000	98.272377 
3625.000000	98.267145 
3624.000000	98.258711 
3623.000000	98.249798 
3622.000000	98.245402 
3621.000000	98.248685 
3620.000000	98.258788 
3619.000000	98.271787 
3618.000000	98.283335 
3617.000000	98.290751 
3616.000000	98.292977 
3615.000000	98.289138 
3614.000000	98.279908 
3613.000000	98.271440 
3612.000000	98.273633 
3611.000000	98.291190 
3610.000000	98.318025 
3609.000000	98.340962 
3608.000000	98.350267 
3607.000000	98.346925 
3606.000000	98.339872 
3605.000000	98.339188 
3604.000000	98.350880 
3603.000000	98.372974 
3602.000000	98.394676 
3601.000000	98.403488 
3600.000000	98.396518 
3599.000000	98.382369 
3598.000000	98.372601 
3597.000000	98.372648 
3596.000000	98.379842 
3595.000000	98.386652 
3594.000000	98.387420 
3593.000000	98.382281 
3592.000000	98.376382 
3591.000000	98.375134 
3590.000000	98.379808 
3589.000000	98.386276 
3588.000000	98.390254 
3587.000000	98.393411 
3586.000000	98.400340 
3585.000000	98.411748 
3584.000000	98.424769 
3583.000000	98.436244 
3582.000000	98.443499 
3581.000000	98.444742 
3580.000000	98.441383 
3579.000000	98.439042 
3578.000000	98.443446 
3577.000000	98.454540 
3576.000000	98.465207 
3575.000000	98.466763 
3574.000000	98.455889 
3573.000000	98.437124 
3572.000000	98.419893 
3571.000000	98.413333 
3570.000000	98.421376 
3569.000000	98.439984 
3568.000000	98.459654 
3567.000000	98.474022 
3566.000000	98.484448 
3565.000000	98.494345 
3564.000000	98.503565 
3563.000000	98.509218 
3562.000000	98.508911 
3561.000000	98.502680 
3560.000000	98.493289 
3559.000000	98.485366 
3558.000000	98.483364 
3557.000000	98.489384 
3556.000000	98.502231 
3555.000000	98.518481 
3554.000000	98.534669 
3553.000000	98.549483 
3552.000000	98.564483 
3551.000000	98.581960 
3550.000000	98.601429 
3549.000000	98.618104 
3548.000000	98.625081 
3547.000000	98.618350 
3546.000000	98.601299 
3545.000000	98.583988 
3544.000000	98.576469 
3543.000000	98.582069 
3542.000000	98.595949 
3541.000000	98.609836 
3540.000000	98.618311 
3539.000000	98.621286 
3538.000000	98.621407 
3537.000000	98.620497 
3536.000000	98.619431 
3535.000000	98.619756 
3534.000000	98.623559 
3533.000000	98.631143 
3532.000000	98.640618 
3531.000000	98.650150 
3530.000000	98.659671 
3529.000000	98.669495 
3528.000000	98.678546 
3527.000000	98.685267 
3526.000000	98.689542 
3525.000000	98.692222 
3524.000000	98.693405 
3523.000000	98.693069 
3522.000000	98.693196 
3521.000000	98.696766 
3520.000000	98.703681 
3519.000000	98.709723 
3518.000000	98.711741 
3517.000000	98.712724 
3516.000000	98.719325 
3515.000000	98.734222 
3514.000000	98.752843 
3513.000000	98.767648 
3512.000000	98.774091 
3511.000000	98.772171 
3510.000000	98.764123 
3509.000000	98.752118 
3508.000000	98.738168 
3507.000000	98.725214 
3506.000000	98.717291 
3505.000000	98.717104 
3504.000000	98.722567 
3503.000000	98.726705 
3502.000000	98.723104 
3501.000000	98.711639 
3500.000000	98.698432 
3499.000000	98.691274 
3498.000000	98.695905 
3497.000000	98.713930 
3496.000000	98.740202 
3495.000000	98.762479 
3494.000000	98.768424 
3493.000000	98.756360 
3492.000000	98.737717 
3491.000000	98.726841 
3490.000000	98.729095 
3489.000000	98.739531 
3488.000000	98.751024 
3487.000000	98.760445 
3486.000000	98.767886 
3485.000000	98.773774 
3484.000000	98.778074 
3483.000000	98.779728 
3482.000000	98.775636 
3481.000000	98.762638 
3480.000000	98.742750 
3479.000000	98.724999 
3478.000000	98.719181 
3477.000000	98.726879 
3476.000000	98.739699 
3475.000000	98.747209 
3474.000000	98.746464 
3473.000000	98.742988 
3472.000000	98.743382 
3471.000000	98.748741 
3470.000000	98.755441 
3469.000000	98.760444 
3468.000000	98.764053 
3467.000000	98.768114 
3466.000000	98.773086 
3465.000000	98.777251 
3464.000000	98.778147 
3463.000000	98.775300 
3462.000000	98.773017 
3461.000000	98.779701 
3460.000000	98.801299 
3459.000000	98.833584 
3458.000000	98.862688 
3457.000000	98.875759 
3456.000000	98.871159 
3455.000000	98.857313 
3454.000000	98.843163 
3453.000000	98.832509 
3452.000000	98.826845 
3451.000000	98.828094 
3450.000000	98.835191 
3449.000000	98.841128 
3448.000000	98.838820 
3447.000000	98.830396 
3446.000000	98.825984 
3445.000000	98.831147 
3444.000000	98.839301 
3443.000000	98.838758 
3442.000000	98.824903 
3441.000000	98.803453 
3440.000000	98.783753 
3439.000000	98.772503 
3438.000000	98.772667 
3437.000000	98.783149 
3436.000000	98.797711 
3435.000000	98.807679 
3434.000000	98.808632 
3433.000000	98.803385 
3432.000000	98.797194 
3431.000000	98.791960 
3430.000000	98.787236 
3429.000000	98.784726 
3428.000000	98.787853 
3427.000000	98.796668 
3426.000000	98.806243 
3425.000000	98.811076 
3424.000000	98.809082 
3423.000000	98.800864 
3422.000000	98.787953 
3421.000000	98.773442 
3420.000000	98.762153 
3419.000000	98.757301 
3418.000000	98.757337 
3417.000000	98.757587 
3416.000000	98.754526 
3415.000000	98.747489 
3414.000000	98.737710 
3413.000000	98.728216 
3412.000000	98.724355 
3411.000000	98.730942 
3410.000000	98.746358 
3409.000000	98.760831 
3408.000000	98.763541 
3407.000000	98.752623 
3406.000000	98.736824 
3405.000000	98.726338 
3404.000000	98.723327 
3403.000000	98.722674 
3402.000000	98.720737 
3401.000000	98.720043 
3400.000000	98.724300 
3399.000000	98.731475 
3398.000000	98.734328 
3397.000000	98.727058 
3396.000000	98.709905 
3395.000000	98.688611 
3394.000000	98.671789 
3393.000000	98.667878 
3392.000000	98.680479 
3391.000000	98.704360 
3390.000000	98.727241 
3389.000000	98.737373 
3388.000000	98.730974 
3387.000000	98.714137 
3386.000000	98.698818 
3385.000000	98.695063 
3384.000000	98.704061 
3383.000000	98.717579 
3382.000000	98.725071 
3381.000000	98.721501 
3380.000000	98.708570 
3379.000000	98.690981 
3378.000000	98.674006 
3377.000000	98.663032 
3376.000000	98.661096 
3375.000000	98.665831 
3374.000000	98.671508 
3373.000000	98.674992 
3372.000000	98.677849 
3371.000000	98.682581 
3370.000000	98.689638 
3369.000000	98.698667 
3368.000000	98.709437 
3367.000000	98.719917 
3366.000000	98.726141 
3365.000000	98.726192 
3364.000000	98.722662 
3363.000000	98.719598 
3362.000000	98.718594 
3361.000000	98.718971 
3360.000000	98.719601 
3359.000000	98.718661 
3358.000000	98.713632 
3357.000000	98.703940 
3356.000000	98.692358 
3355.000000	98.681569 
3354.000000	98.670266 
3353.000000	98.655001 
3352.000000	98.635577 
3351.000000	98.617087 
3350.000000	98.606598 
3349.000000	98.608183 
3348.000000	98.619680 
3347.000000	98.632961 
3346.000000	98.639305 
3345.000000	98.637143 
3344.000000	98.634221 
3343.000000	98.639684 
3342.000000	98.653285 
3341.000000	98.663712 
3340.000000	98.658290 
3339.000000	98.634453 
3338.000000	98.602057 
3337.000000	98.575041 
3336.000000	98.560614 
3335.000000	98.555755 
3334.000000	98.553146 
3333.000000	98.548491 
3332.000000	98.541201 
3331.000000	98.530873 
3330.000000	98.517798 
3329.000000	98.507386 
3328.000000	98.509151 
3327.000000	98.527444 
3326.000000	98.554921 
3325.000000	98.577916 
3324.000000	98.587220 
3323.000000	98.582129 
3322.000000	98.566724 
3321.000000	98.546215 
3320.000000	98.525920 
3319.000000	98.509257 
3318.000000	98.495188 
3317.000000	98.479978 
3316.000000	98.462560 
3315.000000	98.446486 
3314.000000	98.435572 
3313.000000	98.428905 
3312.000000	98.421175 
3311.000000	98.407346 
3310.000000	98.386715 
3309.000000	98.363278 
3308.000000	98.342467 
3307.000000	98.326598 
3306.000000	98.312626 
3305.000000	98.294528 
3304.000000	98.268477 
3303.000000	98.236246 
3302.000000	98.204122 
3301.000000	98.178470 
3300.000000	98.161556 
3299.000000	98.150682 
3298.000000	98.140876 
3297.000000	98.128162 
3296.000000	98.110398 
3295.000000	98.086326 
3294.000000	98.055841 
3293.000000	98.021494 
3292.000000	97.988136 
3291.000000	97.960112 
3290.000000	97.939444 
3289.000000	97.926698 
3288.000000	97.921559 
3287.000000	97.921125 
3286.000000	97.918820 
3285.000000	97.907340 
3284.000000	97.883761 
3283.000000	97.852042 
3282.000000	97.820644 
3281.000000	97.797051 
3280.000000	97.783166 
3279.000000	97.775347 
3278.000000	97.769112 
3277.000000	97.763357 
3276.000000	97.759319 
3275.000000	97.756581 
3274.000000	97.752258 
3273.000000	97.743739 
3272.000000	97.729838 
3271.000000	97.709340 
3270.000000	97.681477 
3269.000000	97.648954 
3268.000000	97.618045 
3267.000000	97.593992 
3266.000000	97.577506 
3265.000000	97.566061 
3264.000000	97.556293 
3263.000000	97.544673 
3262.000000	97.529063 
3261.000000	97.511318 
3260.000000	97.495463 
3259.000000	97.481345 
3258.000000	97.463026 
3257.000000	97.436176 
3256.000000	97.404470 
3255.000000	97.374981 
3254.000000	97.348935 
3253.000000	97.320890 
3252.000000	97.286592 
3251.000000	97.248302 
3250.000000	97.212132 
3249.000000	97.182465 
3248.000000	97.158748 
3247.000000	97.135477 
3246.000000	97.105861 
3245.000000	97.068455 
3244.000000	97.030673 
3243.000000	97.003213 
3242.000000	96.989780 
3241.000000	96.983169 
3240.000000	96.971670 
3239.000000	96.948727 
3238.000000	96.917008 
3237.000000	96.884633 
3236.000000	96.857574 
3235.000000	96.834512 
3234.000000	96.808640 
3233.000000	96.774740 
3232.000000	96.734102 
3231.000000	96.692441 
3230.000000	96.654763 
3229.000000	96.623485 
3228.000000	96.599470 
3227.000000	96.581806 
3226.000000	96.566755 
3225.000000	96.549655 
3224.000000	96.528569 
3223.000000	96.504435 
3222.000000	96.477282 
3221.000000	96.444302 
3220.000000	96.403052 
3219.000000	96.355903 
3218.000000	96.310080 
3217.000000	96.272733 
3216.000000	96.245425 
3215.000000	96.222933 
3214.000000	96.197804 
3213.000000	96.166895 
3212.000000	96.133506 
3211.000000	96.103084 
3210.000000	96.077425 
3209.000000	96.053160 
3208.000000	96.024687 
3207.000000	95.987870 
3206.000000	95.942484 
3205.000000	95.893223 
3204.000000	95.848025 
3203.000000	95.813081 
3202.000000	95.787951 
3201.000000	95.765727 
3200.000000	95.738579 
3199.000000	95.703876 
3198.000000	95.665576 
3197.000000	95.629623 
3196.000000	95.597026 
3195.000000	95.561200 
3194.000000	95.513309 
3193.000000	95.451190 
3192.000000	95.382406 
3191.000000	95.317393 
3190.000000	95.259760 
3189.000000	95.203813 
3188.000000	95.140795 
3187.000000	95.066505 
3186.000000	94.983582 
3185.000000	94.898617 
3184.000000	94.818369 
3183.000000	94.747531 
3182.000000	94.687060 
3181.000000	94.632375 
3180.000000	94.574207 
3179.000000	94.504613 
3178.000000	94.423768 
3177.000000	94.338769 
3176.000000	94.254227 
3175.000000	94.166650 
3174.000000	94.070873 
3173.000000	93.969665 
3172.000000	93.872545 
3171.000000	93.785647 
3170.000000	93.707476 
3169.000000	93.635400 
3168.000000	93.571078 
3167.000000	93.516242 
3166.000000	93.466249 
3165.000000	93.411552 
3164.000000	93.344825 
3163.000000	93.265107 
3162.000000	93.176638 
3161.000000	93.085386 
3160.000000	92.995125 
3159.000000	92.905069 
3158.000000	92.812680 
3157.000000	92.719531 
3156.000000	92.631154 
3155.000000	92.548570 
3154.000000	92.463270 
3153.000000	92.365317 
3152.000000	92.255421 
3151.000000	92.144394 
3150.000000	92.040308 
3149.000000	91.940372 
3148.000000	91.836781 
3147.000000	91.727002 
3146.000000	91.615888 
3145.000000	91.509768 
3144.000000	91.411098 
3143.000000	91.317941 
3142.000000	91.226028 
3141.000000	91.130692 
3140.000000	91.028242 
3139.000000	90.916751 
3138.000000	90.796110 
3137.000000	90.667922 
3136.000000	90.535997 
3135.000000	90.406378 
3134.000000	90.284594 
3133.000000	90.170597 
3132.000000	90.056712 
3131.000000	89.933256 
3130.000000	89.797670 
3129.000000	89.656748 
3128.000000	89.518690 
3127.000000	89.384472 
3126.000000	89.248474 
3125.000000	89.105380 
3124.000000	88.953189 
3123.000000	88.790762 
3122.000000	88.617234 
3121.000000	88.434900 
3120.000000	88.248589 
3119.000000	88.059925 
3118.000000	87.865087 
3117.000000	87.660401 
3116.000000	87.447261 
3115.000000	87.228724 
3114.000000	87.004035 
3113.000000	86.770722 
3112.000000	86.530953 
3111.000000	86.291253 
3110.000000	86.054946 
3109.000000	85.817993 
3108.000000	85.573807 
3107.000000	85.320363 
3106.000000	85.061412 
3105.000000	84.802535 
3104.000000	84.547836 
3103.000000	84.299339 
3102.000000	84.057118 
3101.000000	83.819227 
3100.000000	83.582445 
3099.000000	83.344254 
3098.000000	83.104644 
3097.000000	82.866428 
3096.000000	82.633925 
3095.000000	82.410637 
3094.000000	82.196869 
3093.000000	81.989021 
3092.000000	81.782316 
3091.000000	81.576066 
3090.000000	81.376375 
3089.000000	81.191758 
3088.000000	81.024846 
3087.000000	80.869061 
3086.000000	80.714357 
3085.000000	80.555765 
3084.000000	80.396191 
3083.000000	80.242774 
3082.000000	80.102162 
3081.000000	79.977952 
3080.000000	79.869882 
3079.000000	79.774458 
3078.000000	79.686984 
3077.000000	79.603428 
3076.000000	79.520920 
3075.000000	79.438155 
3074.000000	79.356418 
3073.000000	79.279245 
3072.000000	79.209989 
3071.000000	79.150444 
3070.000000	79.102119 
3069.000000	79.066609 
3068.000000	79.042892 
3067.000000	79.026054 
3066.000000	79.011104 
3065.000000	78.997006 
3064.000000	78.984976 
3063.000000	78.974731 
3062.000000	78.966042 
3061.000000	78.963012 
3060.000000	78.972127 
3059.000000	78.994384 
3058.000000	79.022280 
3057.000000	79.046663 
3056.000000	79.065374 
3055.000000	79.083926 
3054.000000	79.108961 
3053.000000	79.142285 
3052.000000	79.180293 
3051.000000	79.218163 
3050.000000	79.254912 
3049.000000	79.294515 
3048.000000	79.341309 
3047.000000	79.394317 
3046.000000	79.446964 
3045.000000	79.491855 
3044.000000	79.524543 
3043.000000	79.543431 
3042.000000	79.548926 
3041.000000	79.544124 
3040.000000	79.534678 
3039.000000	79.526019 
3038.000000	79.520170 
3037.000000	79.514814 
3036.000000	79.504580 
3035.000000	79.483794 
3034.000000	79.450455 
3033.000000	79.409049 
3032.000000	79.368435 
3031.000000	79.335650 
3030.000000	79.311703 
3029.000000	79.293234 
3028.000000	79.276493 
3027.000000	79.258524 
3026.000000	79.236259 
3025.000000	79.207676 
3024.000000	79.175209 
3023.000000	79.146387 
3022.000000	79.128496 
3021.000000	79.121676 
3020.000000	79.118173 
3019.000000	79.109606 
3018.000000	79.094770 
3017.000000	79.079702 
3016.000000	79.070740 
3015.000000	79.069011 
3014.000000	79.071301 
3013.000000	79.073986 
3012.000000	79.075292 
3011.000000	79.075519 
3010.000000	79.076182 
3009.000000	79.077118 
3008.000000	79.072425 
3007.000000	79.049799 
3006.000000	78.995274 
3005.000000	78.899067 
3004.000000	78.759155 
3003.000000	78.585156 
3002.000000	78.403962 
3001.000000	78.259187 
3000.000000	78.195607 
2999.000000	78.235100 
2998.000000	78.362622 
2997.000000	78.533302 
2996.000000	78.691431 
2995.000000	78.785996 
2994.000000	78.778323 
2993.000000	78.648867 
2992.000000	78.407558 
2991.000000	78.098717 
2990.000000	77.789101 
2989.000000	77.540255 
2988.000000	77.384156 
2987.000000	77.321119 
2986.000000	77.336969 
2985.000000	77.418839 
2984.000000	77.555850 
2983.000000	77.732686 
2982.000000	77.929667 
2981.000000	78.129335 
2980.000000	78.320821 
2979.000000	78.498953 
2978.000000	78.662586 
2977.000000	78.813839 
2976.000000	78.956423 
2975.000000	79.094147 
2974.000000	79.232244 
2973.000000	79.378956 
2972.000000	79.542144 
2971.000000	79.722713 
2970.000000	79.912539 
2969.000000	80.099663 
2968.000000	80.274729 
2967.000000	80.433370 
2966.000000	80.575890 
2965.000000	80.707312 
2964.000000	80.836182 
2963.000000	80.969194 
2962.000000	81.104302 
2961.000000	81.229500 
2960.000000	81.330165 
2959.000000	81.398759 
2958.000000	81.437292 
2957.000000	81.450696 
2956.000000	81.439568 
2955.000000	81.400561 
2954.000000	81.332308 
2953.000000	81.238444 
2952.000000	81.125025 
2951.000000	80.997653 
2950.000000	80.861806 
2949.000000	80.723313 
2948.000000	80.586477 
2947.000000	80.452627 
2946.000000	80.321464 
2945.000000	80.192970 
2944.000000	80.067638 
2943.000000	79.946557 
2942.000000	79.832038 
2941.000000	79.726576 
2940.000000	79.630638 
2939.000000	79.543325 
2938.000000	79.465819 
2937.000000	79.401663 
2936.000000	79.352655 
2935.000000	79.317177 
2934.000000	79.293980 
2933.000000	79.284439 
2932.000000	79.288882 
2931.000000	79.303709 
2930.000000	79.325212 
2929.000000	79.353982 
2928.000000	79.392471 
2927.000000	79.440003 
2926.000000	79.493581 
2925.000000	79.552350 
2924.000000	79.618100 
2923.000000	79.692143 
2922.000000	79.774142 
2921.000000	79.862697 
2920.000000	79.954415 
2919.000000	80.043849 
2918.000000	80.127761 
2917.000000	80.209012 
2916.000000	80.293536 
2915.000000	80.383742 
2914.000000	80.476935 
2913.000000	80.569312 
2912.000000	80.658800 
2911.000000	80.744197 
2910.000000	80.824147 
2909.000000	80.897467 
2908.000000	80.963422 
2907.000000	81.022337 
2906.000000	81.077314 
2905.000000	81.133715 
2904.000000	81.194379 
2903.000000	81.255712 
2902.000000	81.310780 
2901.000000	81.355341 
2900.000000	81.389488 
2899.000000	81.415153 
2898.000000	81.435105 
2897.000000	81.453419 
2896.000000	81.472849 
2895.000000	81.491080 
2894.000000	81.502422 
2893.000000	81.503990 
2892.000000	81.498236 
2891.000000	81.489656 
2890.000000	81.481793 
2889.000000	81.477689 
2888.000000	81.480124 
2887.000000	81.489566 
2886.000000	81.503427 
2885.000000	81.518524 
2884.000000	81.533645 
2883.000000	81.549679 
2882.000000	81.568543 
2881.000000	81.592051 
2880.000000	81.620675 
2879.000000	81.653227 
2878.000000	81.688238 
2877.000000	81.724572 
2876.000000	81.759762 
2875.000000	81.789934 
2874.000000	81.814032 
2873.000000	81.836741 
2872.000000	81.863703 
2871.000000	81.894154 
2870.000000	81.921477 
2869.000000	81.940857 
2868.000000	81.953197 
2867.000000	81.961503 
2866.000000	81.967403 
2865.000000	81.972182 
2864.000000	81.977159 
2863.000000	81.980731 
2862.000000	81.978135 
2861.000000	81.966901 
2860.000000	81.950688 
2859.000000	81.935570 
2858.000000	81.924283 
2857.000000	81.915984 
2856.000000	81.909575 
2855.000000	81.904923 
2854.000000	81.902285 
2853.000000	81.903088 
2852.000000	81.910415 
2851.000000	81.926053 
2850.000000	81.946837 
2849.000000	81.965741 
2848.000000	81.977389 
2847.000000	81.981693 
2846.000000	81.982009 
2845.000000	81.980774 
2844.000000	81.977507 
2843.000000	81.970448 
2842.000000	81.959245 
2841.000000	81.945651 
2840.000000	81.931685 
2839.000000	81.917309 
2838.000000	81.899751 
2837.000000	81.874637 
2836.000000	81.837906 
2835.000000	81.787702 
2834.000000	81.725270 
2833.000000	81.653715 
2832.000000	81.575417 
2831.000000	81.491090 
2830.000000	81.401421 
2829.000000	81.308193 
2828.000000	81.212555 
2827.000000	81.113193 
2826.000000	81.008017 
2825.000000	80.897424 
2824.000000	80.784402 
2823.000000	80.671486 
2822.000000	80.559249 
2821.000000	80.448231 
2820.000000	80.340811 
2819.000000	80.239736 
2818.000000	80.145079 
2817.000000	80.053989 
2816.000000	79.964574 
2815.000000	79.879977 
2814.000000	79.807242 
2813.000000	79.751214 
2812.000000	79.710420 
2811.000000	79.680306 
2810.000000	79.659280 
2809.000000	79.648948 
2808.000000	79.649044 
2807.000000	79.656042 
2806.000000	79.668317 
2805.000000	79.689526 
2804.000000	79.724272 
2803.000000	79.772217 
2802.000000	79.828479 
2801.000000	79.887925 
2800.000000	79.946304 
2799.000000	79.998479 
2798.000000	80.038846 
2797.000000	80.064055 
2796.000000	80.074162 
2795.000000	80.071656 
2794.000000	80.060710 
2793.000000	80.046138 
2792.000000	80.030612 
2791.000000	80.012910 
2790.000000	79.990356 
2789.000000	79.962605 
2788.000000	79.931625 
2787.000000	79.898821 
2786.000000	79.864510 
2785.000000	79.830502 
2784.000000	79.801460 
2783.000000	79.782696 
2782.000000	79.776310 
2781.000000	79.778900 
2780.000000	79.783237 
2779.000000	79.784110 
2778.000000	79.783601 
2777.000000	79.788984 
2776.000000	79.804617 
2775.000000	79.827875 
2774.000000	79.854176 
2773.000000	79.882742 
2772.000000	79.914391 
2771.000000	79.946352 
2770.000000	79.974008 
2769.000000	79.997482 
2768.000000	80.022276 
2767.000000	80.052355 
2766.000000	80.085430 
2765.000000	80.116035 
2764.000000	80.140792 
2763.000000	80.159212 
2762.000000	80.171034 
2761.000000	80.174454 
2760.000000	80.166874 
2759.000000	80.147392 
2758.000000	80.119084 
2757.000000	80.088103 
2756.000000	80.058933 
2755.000000	80.030534 
2754.000000	79.998269 
2753.000000	79.959167 
2752.000000	79.914009 
2751.000000	79.865111 
2750.000000	79.814321 
2749.000000	79.763276 
2748.000000	79.713416 
2747.000000	79.664830 
2746.000000	79.616241 
2745.000000	79.566585 
2744.000000	79.515586 
2743.000000	79.462426 
2742.000000	79.404826 
2741.000000	79.340084 
2740.000000	79.266797 
2739.000000	79.185601 
2738.000000	79.098557 
2737.000000	79.007745 
2736.000000	78.914480 
2735.000000	78.820463 
2734.000000	78.729427 
2733.000000	78.646303 
2732.000000	78.574541 
2731.000000	78.515838 
2730.000000	78.472667 
2729.000000	78.448536 
2728.000000	78.444495 
2727.000000	78.457760 
2726.000000	78.485700 
2725.000000	78.529165 
2724.000000	78.589486 
2723.000000	78.663788 
2722.000000	78.746168 
2721.000000	78.833084 
2720.000000	78.925564 
2719.000000	79.026503 
2718.000000	79.137298 
2717.000000	79.256407 
2716.000000	79.379766 
2715.000000	79.503785 
2714.000000	79.629593 
2713.000000	79.762843 
2712.000000	79.907151 
2711.000000	80.059185 
2710.000000	80.213033 
2709.000000	80.368200 
2708.000000	80.529645 
2707.000000	80.700102 
2706.000000	80.875982 
2705.000000	81.051698 
2704.000000	81.224996 
2703.000000	81.396698 
2702.000000	81.567843 
2701.000000	81.738846 
2700.000000	81.909565 
2699.000000	82.078299 
2698.000000	82.241860 
2697.000000	82.398250 
2696.000000	82.548659 
2695.000000	82.695937 
2694.000000	82.842217 
2693.000000	82.989140 
2692.000000	83.139153 
2691.000000	83.294663 
2690.000000	83.456034 
2689.000000	83.621686 
2688.000000	83.790005 
2687.000000	83.959720 
2686.000000	84.128297 
2685.000000	84.291792 
2684.000000	84.447796 
2683.000000	84.598122 
2682.000000	84.747355 
2681.000000	84.898745 
2680.000000	85.052242 
2679.000000	85.205779 
2678.000000	85.356197 
2677.000000	85.498246 
2676.000000	85.625345 
2675.000000	85.733889 
2674.000000	85.825616 
2673.000000	85.903277 
2672.000000	85.964883 
2671.000000	86.005351 
2670.000000	86.023470 
2669.000000	86.023479 
2668.000000	86.008925 
2667.000000	85.978795 
2666.000000	85.931585 
2665.000000	85.869758 
2664.000000	85.797495 
2663.000000	85.717001 
2662.000000	85.630619 
2661.000000	85.544820 
2660.000000	85.468180 
2659.000000	85.405353 
2658.000000	85.355067 
2657.000000	85.313456 
2656.000000	85.277731 
2655.000000	85.247989 
2654.000000	85.227620 
2653.000000	85.221043 
2652.000000	85.229372 
2651.000000	85.249156 
2650.000000	85.275793 
2649.000000	85.305151 
2648.000000	85.330431 
2647.000000	85.341987 
2646.000000	85.334636 
2645.000000	85.312554 
2644.000000	85.282741 
2643.000000	85.245911 
2642.000000	85.197741 
2641.000000	85.135691 
2640.000000	85.058154 
2639.000000	84.958866 
2638.000000	84.830036 
2637.000000	84.672125 
2636.000000	84.494490 
2635.000000	84.304928 
2634.000000	84.103856 
2633.000000	83.890039 
2632.000000	83.666453 
2631.000000	83.437879 
2630.000000	83.207109 
2629.000000	82.976400 
2628.000000	82.749636 
2627.000000	82.530518 
2626.000000	82.320352 
2625.000000	82.118556 
2624.000000	81.923556 
2623.000000	81.733388 
2622.000000	81.547914 
2621.000000	81.369803 
2620.000000	81.200154 
2619.000000	81.034281 
2618.000000	80.866409 
2617.000000	80.698484 
2616.000000	80.539242 
2615.000000	80.393178 
2614.000000	80.254433 
2613.000000	80.113077 
2612.000000	79.964197 
2611.000000	79.809539 
2610.000000	79.653428 
2609.000000	79.498972 
2608.000000	79.346813 
2607.000000	79.197485 
2606.000000	79.056445 
2605.000000	78.934643 
2604.000000	78.839651 
2603.000000	78.766709 
2602.000000	78.703028 
2601.000000	78.641211 
2600.000000	78.584112 
2599.000000	78.536204 
2598.000000	78.495803 
2597.000000	78.458741 
2596.000000	78.425907 
2595.000000	78.403791 
2594.000000	78.399342 
2593.000000	78.416525 
2592.000000	78.456638 
2591.000000	78.520039 
2590.000000	78.607783 
2589.000000	78.721848 
2588.000000	78.862981 
2587.000000	79.028519 
2586.000000	79.213617 
2585.000000	79.414509 
2584.000000	79.629172 
2583.000000	79.855025 
2582.000000	80.087547 
2581.000000	80.321261 
2580.000000	80.550897 
2579.000000	80.771936 
2578.000000	80.981772 
2577.000000	81.180721 
2576.000000	81.370780 
2575.000000	81.553085 
2574.000000	81.727022 
2573.000000	81.891180 
2572.000000	82.044202 
2571.000000	82.185248 
2570.000000	82.314560 
2569.000000	82.433382 
2568.000000	82.543594 
2567.000000	82.648891 
2566.000000	82.755506 
2565.000000	82.867916 
2564.000000	82.982804 
2563.000000	83.091851 
2562.000000	83.193228 
2561.000000	83.296009 
2560.000000	83.409386 
2559.000000	83.531397 
2558.000000	83.652861 
2557.000000	83.768583 
2556.000000	83.879220 
2555.000000	83.986228 
2554.000000	84.092896 
2553.000000	84.208165 
2552.000000	84.339935 
2551.000000	84.483100 
2550.000000	84.621404 
2549.000000	84.743136 
2548.000000	84.848978 
2547.000000	84.943093 
2546.000000	85.023992 
2545.000000	85.088519 
2544.000000	85.139351 
2543.000000	85.183341 
2542.000000	85.224880 
2541.000000	85.263910 
2540.000000	85.297883 
2539.000000	85.323123 
2538.000000	85.336829 
2537.000000	85.340428 
2536.000000	85.339789 
2535.000000	85.341113 
2534.000000	85.348011 
2533.000000	85.361809 
2532.000000	85.380945 
2531.000000	85.399825 
2530.000000	85.412622 
2529.000000	85.419883 
2528.000000	85.428096 
2527.000000	85.441200 
2526.000000	85.455170 
2525.000000	85.461496 
2524.000000	85.452677 
2523.000000	85.424105 
2522.000000	85.375520 
2521.000000	85.313126 
2520.000000	85.246871 
2519.000000	85.183067 
2518.000000	85.121721 
2517.000000	85.061908 
2516.000000	85.006039 
2515.000000	84.956236 
2514.000000	84.908946 
2513.000000	84.856447 
2512.000000	84.794088 
2511.000000	84.725591 
2510.000000	84.661294 
2509.000000	84.610351 
2508.000000	84.573997 
2507.000000	84.548061 
2506.000000	84.532879 
2505.000000	84.537075 
2504.000000	84.568090 
2503.000000	84.622050 
2502.000000	84.688186 
2501.000000	84.762125 
2500.000000	84.849979 
2499.000000	84.959512 
2498.000000	85.091637 
2497.000000	85.240569 
2496.000000	85.398043 
2495.000000	85.556854 
2494.000000	85.713838 
2493.000000	85.870135 
2492.000000	86.026339 
2491.000000	86.178519 
2490.000000	86.322356 
2489.000000	86.459693 
2488.000000	86.596285 
2487.000000	86.733499 
2486.000000	86.866450 
2485.000000	86.989521 
2484.000000	87.099379 
2483.000000	87.194393 
2482.000000	87.277253 
2481.000000	87.356851 
2480.000000	87.439659 
2479.000000	87.518575 
2478.000000	87.577950 
2477.000000	87.611433 
2476.000000	87.627467 
2475.000000	87.635315 
2474.000000	87.634531 
2473.000000	87.622615 
2472.000000	87.605455 
2471.000000	87.594295 
2470.000000	87.597768 
2469.000000	87.621517 
2468.000000	87.669376 
2467.000000	87.738588 
2466.000000	87.818455 
2465.000000	87.900349 
2464.000000	87.985991 
2463.000000	88.080294 
2462.000000	88.179850 
2461.000000	88.275762 
2460.000000	88.365808 
2459.000000	88.456264 
2458.000000	88.551702 
2457.000000	88.649452 
2456.000000	88.744974 
2455.000000	88.836937 
2454.000000	88.925409 
2453.000000	89.010492 
2452.000000	89.095811 
2451.000000	89.189160 
2450.000000	89.295067 
2449.000000	89.407595 
2448.000000	89.513428 
2447.000000	89.602210 
2446.000000	89.672451 
2445.000000	89.728669 
2444.000000	89.776272 
2443.000000	89.820547 
2442.000000	89.867227 
2441.000000	89.919091 
2440.000000	89.971159 
2439.000000	90.013322 
2438.000000	90.041058 
2437.000000	90.062119 
2436.000000	90.090124 
2435.000000	90.132381 
2434.000000	90.185322 
2433.000000	90.239362 
2432.000000	90.285833 
2431.000000	90.322035 
2430.000000	90.353312 
2429.000000	90.388312 
2428.000000	90.428330 
2427.000000	90.463546 
2426.000000	90.484414 
2425.000000	90.494698 
2424.000000	90.507607 
2423.000000	90.530338 
2422.000000	90.558741 
2421.000000	90.586526 
2420.000000	90.612644 
2419.000000	90.638656 
2418.000000	90.665639 
2417.000000	90.696041 
2416.000000	90.733178 
2415.000000	90.776563 
2414.000000	90.822013 
2413.000000	90.867656 
2412.000000	90.915351 
2411.000000	90.965998 
2410.000000	91.019732 
2409.000000	91.081627 
2408.000000	91.158858 
2407.000000	91.247819 
2406.000000	91.331087 
2405.000000	91.393767 
2404.000000	91.439024 
2403.000000	91.481746 
2402.000000	91.529809 
2401.000000	91.577293 
2400.000000	91.614671 
2399.000000	91.640298 
2398.000000	91.660724 
2397.000000	91.682118 
2396.000000	91.702974 
2395.000000	91.716217 
2394.000000	91.719432 
2393.000000	91.720941 
2392.000000	91.731736 
2391.000000	91.752884 
2390.000000	91.777264 
2389.000000	91.804425 
2388.000000	91.846152 
2387.000000	91.913082 
2386.000000	92.001180 
2385.000000	92.096735 
2384.000000	92.190891 
2383.000000	92.282698 
2382.000000	92.369464 
2381.000000	92.442071 
2380.000000	92.493870 
2379.000000	92.531160 
2378.000000	92.569133 
2377.000000	92.616290 
2376.000000	92.665136 
2375.000000	92.701242 
2374.000000	92.723467 
2373.000000	92.751073 
2372.000000	92.806630 
2371.000000	92.893602 
2370.000000	92.993919 
2369.000000	93.082402 
2368.000000	93.136496 
2367.000000	93.140314 
2366.000000	93.097026 
2365.000000	93.041710 
2364.000000	93.030277 
2363.000000	93.091721 
2362.000000	93.200163 
2361.000000	93.310846 
2360.000000	93.391849 
2359.000000	93.431154 
2358.000000	93.433391 
2357.000000	93.416613 
2356.000000	93.415947 
2355.000000	93.455137 
2354.000000	93.528157 
2353.000000	93.602381 
2352.000000	93.646158 
2351.000000	93.664277 
2350.000000	93.682015 
2349.000000	93.725757 
2348.000000	93.793765 
2347.000000	93.850039 
2346.000000	93.860917 
2345.000000	93.827191 
2344.000000	93.795177 
2343.000000	93.792270 
2342.000000	93.809463 
2341.000000	93.835256 
2340.000000	93.872226 
2339.000000	93.929296 
2338.000000	93.997317 
2337.000000	94.056506 
2336.000000	94.096146 
2335.000000	94.123250 
2334.000000	94.148817 
2333.000000	94.174951 
2332.000000	94.189317 
2331.000000	94.187941 
2330.000000	94.169817 
2329.000000	94.147415 
2328.000000	94.128870 
2327.000000	94.108534 
2326.000000	94.080839 
2325.000000	94.046463 
2324.000000	94.028930 
2323.000000	94.041144 
2322.000000	94.071370 
2321.000000	94.093217 
2320.000000	94.095014 
2319.000000	94.089880 
2318.000000	94.092773 
2317.000000	94.112591 
2316.000000	94.144663 
2315.000000	94.178885 
2314.000000	94.199153 
2313.000000	94.194777 
2312.000000	94.162932 
2311.000000	94.109465 
2310.000000	94.043531 
2309.000000	93.975482 
2308.000000	93.913388 
2307.000000	93.857401 
2306.000000	93.801779 
2305.000000	93.740661 
2304.000000	93.672266 
2303.000000	93.596068 
2302.000000	93.512467 
2301.000000	93.427976 
2300.000000	93.352602 
2299.000000	93.290421 
2298.000000	93.234860 
2297.000000	93.179223 
2296.000000	93.126895 
2295.000000	93.087283 
2294.000000	93.064382 
2293.000000	93.051931 
2292.000000	93.042771 
2291.000000	93.037416 
2290.000000	93.045055 
2289.000000	93.073415 
2288.000000	93.121064 
2287.000000	93.178836 
2286.000000	93.240345 
2285.000000	93.307223 
2284.000000	93.384380 
2283.000000	93.473066 
2282.000000	93.570759 
2281.000000	93.671809 
2280.000000	93.763701 
2279.000000	93.830052 
2278.000000	93.867177 
2277.000000	93.895168 
2276.000000	93.940397 
2275.000000	94.008234 
2274.000000	94.081190 
2273.000000	94.142359 
2272.000000	94.189056 
2271.000000	94.224671 
2270.000000	94.251935 
2269.000000	94.277014 
2268.000000	94.306814 
2267.000000	94.336378 
2266.000000	94.349448 
2265.000000	94.338185 
2264.000000	94.313561 
2263.000000	94.291163 
2262.000000	94.274289 
2261.000000	94.253148 
2260.000000	94.215451 
2259.000000	94.157283 
2258.000000	94.091996 
2257.000000	94.045114 
2256.000000	94.027801 
2255.000000	94.017388 
2254.000000	93.977817 
2253.000000	93.900223 
2252.000000	93.808937 
2251.000000	93.731032 
2250.000000	93.678583 
2249.000000	93.659679 
2248.000000	93.682549 
2247.000000	93.741008 
2246.000000	93.814058 
2245.000000	93.888140 
2244.000000	93.965753 
2243.000000	94.047098 
2242.000000	94.122253 
2241.000000	94.190274 
2240.000000	94.267781 
2239.000000	94.366028 
2238.000000	94.473291 
2237.000000	94.569538 
2236.000000	94.644260 
2235.000000	94.691932 
2234.000000	94.709344 
2233.000000	94.711158 
2232.000000	94.729802 
2231.000000	94.783164 
2230.000000	94.855666 
2229.000000	94.924318 
2228.000000	94.987788 
2227.000000	95.053790 
2226.000000	95.113501 
2225.000000	95.149929 
2224.000000	95.163171 
2223.000000	95.169290 
2222.000000	95.179433 
2221.000000	95.192715 
2220.000000	95.203120 
2219.000000	95.203927 
2218.000000	95.194040 
2217.000000	95.186934 
2216.000000	95.200598 
2215.000000	95.231824 
2214.000000	95.257310 
2213.000000	95.269133 
2212.000000	95.288657 
2211.000000	95.331409 
2210.000000	95.379237 
2209.000000	95.406724 
2208.000000	95.417769 
2207.000000	95.433560 
2206.000000	95.457634 
2205.000000	95.476234 
2204.000000	95.485068 
2203.000000	95.495051 
2202.000000	95.516311 
2201.000000	95.550996 
2200.000000	95.594217 
2199.000000	95.629152 
2198.000000	95.631872 
2197.000000	95.596771 
2196.000000	95.548239 
2195.000000	95.512848 
2194.000000	95.490173 
2193.000000	95.464502 
2192.000000	95.433963 
2191.000000	95.412216 
2190.000000	95.409033 
2189.000000	95.421936 
2188.000000	95.439604 
2187.000000	95.444716 
2186.000000	95.424566 
2185.000000	95.388880 
2184.000000	95.364878 
2183.000000	95.365333 
2182.000000	95.375550 
2181.000000	95.378946 
2180.000000	95.376052 
2179.000000	95.368640 
2178.000000	95.347003 
2177.000000	95.305966 
2176.000000	95.253780 
2175.000000	95.193686 
2174.000000	95.118694 
2173.000000	95.036647 
2172.000000	94.975264 
2171.000000	94.947033 
2170.000000	94.931176 
2169.000000	94.904693 
2168.000000	94.868945 
2167.000000	94.829633 
2166.000000	94.775767 
2165.000000	94.701919 
2164.000000	94.630440 
2163.000000	94.588948 
2162.000000	94.586246 
2161.000000	94.628499 
2160.000000	94.728927 
2159.000000	94.871160 
2158.000000	94.993496 
2157.000000	95.046249 
2156.000000	95.035329 
2155.000000	94.988263 
2154.000000	94.918156 
2153.000000	94.839108 
2152.000000	94.778083 
2151.000000	94.746401 
2150.000000	94.725310 
2149.000000	94.700986 
2148.000000	94.688483 
2147.000000	94.698549 
2146.000000	94.707783 
2145.000000	94.690656 
2144.000000	94.658184 
2143.000000	94.632752 
2142.000000	94.601849 
2141.000000	94.529914 
2140.000000	94.407691 
2139.000000	94.262227 
2138.000000	94.123596 
2137.000000	94.004483 
2136.000000	93.905501 
2135.000000	93.816846 
2134.000000	93.715791 
2133.000000	93.581921 
2132.000000	93.416700 
2131.000000	93.235948 
2130.000000	93.045828 
2129.000000	92.837843 
2128.000000	92.605762 
2127.000000	92.357112 
2126.000000	92.106401 
2125.000000	91.862076 
2124.000000	91.619918 
2123.000000	91.366977 
2122.000000	91.095076 
2121.000000	90.814049 
2120.000000	90.548746 
2119.000000	90.318680 
2118.000000	90.121358 
2117.000000	89.937809 
2116.000000	89.755090 
2115.000000	89.582973 
2114.000000	89.446824 
2113.000000	89.362269 
2112.000000	89.319553 
2111.000000	89.298372 
2110.000000	89.294782 
2109.000000	89.321773 
2108.000000	89.382288 
2107.000000	89.457782 
2106.000000	89.533193 
2105.000000	89.619628 
2104.000000	89.736467 
2103.000000	89.879254 
2102.000000	90.024295 
2101.000000	90.162452 
2100.000000	90.309092 
2099.000000	90.478038 
2098.000000	90.663666 
2097.000000	90.854898 
2096.000000	91.049605 
2095.000000	91.244272 
2094.000000	91.423059 
2093.000000	91.570393 
2092.000000	91.686257 
2091.000000	91.779760 
2090.000000	91.856837 
2089.000000	91.923682 
2088.000000	91.993087 
2087.000000	92.074959 
2086.000000	92.163866 
2085.000000	92.244233 
2084.000000	92.306105 
2083.000000	92.351828 
2082.000000	92.391365 
2081.000000	92.433711 
2080.000000	92.476745 
2079.000000	92.504655 
2078.000000	92.505277 
2077.000000	92.491832 
2076.000000	92.493910 
2075.000000	92.522848 
2074.000000	92.561708 
2073.000000	92.596367 
2072.000000	92.639821 
2071.000000	92.712563 
2070.000000	92.811593 
2069.000000	92.913993 
2068.000000	93.003952 
2067.000000	93.083192 
2066.000000	93.159418 
2065.000000	93.236048 
2064.000000	93.311283 
2063.000000	93.381733 
2062.000000	93.450603 
2061.000000	93.531727 
2060.000000	93.633749 
2059.000000	93.739818 
2058.000000	93.821408 
2057.000000	93.878372 
2056.000000	93.944176 
2055.000000	94.038225 
2054.000000	94.132848 
2053.000000	94.187668 
2052.000000	94.203732 
2051.000000	94.225080 
2050.000000	94.295834 
2049.000000	94.425378 
2048.000000	94.582667 
2047.000000	94.712828 
2046.000000	94.770226 
2045.000000	94.753975 
2044.000000	94.707799 
2043.000000	94.674400 
2042.000000	94.661069 
2041.000000	94.655671 
2040.000000	94.652120 
2039.000000	94.644196 
2038.000000	94.617250 
2037.000000	94.568746 
2036.000000	94.520870 
2035.000000	94.493905 
2034.000000	94.484412 
2033.000000	94.484956 
2032.000000	94.500673 
2031.000000	94.528525 
2030.000000	94.548667 
2029.000000	94.561252 
2028.000000	94.606435 
2027.000000	94.718677 
2026.000000	94.877532 
2025.000000	95.026730 
2024.000000	95.130896 
2023.000000	95.195784 
2022.000000	95.248394 
2021.000000	95.316690 
2020.000000	95.410945 
2019.000000	95.507560 
2018.000000	95.567974 
2017.000000	95.588135 
2016.000000	95.607823 
2015.000000	95.658109 
2014.000000	95.730321 
2013.000000	95.808718 
2012.000000	95.895325 
2011.000000	95.982884 
2010.000000	96.042171 
2009.000000	96.070120 
2008.000000	96.118861 
2007.000000	96.234513 
2006.000000	96.388108 
2005.000000	96.504372 
2004.000000	96.541278 
2003.000000	96.510960 
2002.000000	96.447513 
2001.000000	96.388046 
2000.000000	96.362791 
1999.000000	96.370680 
1998.000000	96.373802 
1997.000000	96.338621 
1996.000000	96.274878 
1995.000000	96.218979 
1994.000000	96.196427 
1993.000000	96.215413 
1992.000000	96.273027 
1991.000000	96.345315 
1990.000000	96.389351 
1989.000000	96.378378 
1988.000000	96.325126 
1987.000000	96.258556 
1986.000000	96.196016 
1985.000000	96.150585 
1984.000000	96.139706 
1983.000000	96.164207 
1982.000000	96.200017 
1981.000000	96.232202 
1980.000000	96.276988 
1979.000000	96.348933 
1978.000000	96.429036 
1977.000000	96.494613 
1976.000000	96.553684 
1975.000000	96.614657 
1974.000000	96.653821 
1973.000000	96.648715 
1972.000000	96.613778 
1971.000000	96.570493 
1970.000000	96.512882 
1969.000000	96.435849 
1968.000000	96.367518 
1967.000000	96.334981 
1966.000000	96.322245 
1965.000000	96.302291 
1964.000000	96.289066 
1963.000000	96.318506 
1962.000000	96.392494 
1961.000000	96.472753 
1960.000000	96.524055 
1959.000000	96.541037 
1958.000000	96.541018 
1957.000000	96.552110 
1956.000000	96.596706 
1955.000000	96.667107 
1954.000000	96.726361 
1953.000000	96.746758 
1952.000000	96.736417 
1951.000000	96.718481 
1950.000000	96.705225 
1949.000000	96.703945 
1948.000000	96.722780 
1947.000000	96.754369 
1946.000000	96.775879 
1945.000000	96.781244 
1944.000000	96.791178 
1943.000000	96.814571 
1942.000000	96.827386 
1941.000000	96.815410 
1940.000000	96.806390 
1939.000000	96.830771 
1938.000000	96.878578 
1937.000000	96.920534 
1936.000000	96.951967 
1935.000000	96.988106 
1934.000000	97.029091 
1933.000000	97.059927 
1932.000000	97.077272 
1931.000000	97.090172 
1930.000000	97.102805 
1929.000000	97.115864 
1928.000000	97.134502 
1927.000000	97.157311 
1926.000000	97.167937 
1925.000000	97.157281 
1924.000000	97.142724 
1923.000000	97.146806 
1922.000000	97.169149 
1921.000000	97.197971 
1920.000000	97.232975 
1919.000000	97.273865 
1918.000000	97.300053 
1917.000000	97.291859 
1916.000000	97.262577 
1915.000000	97.240113 
1914.000000	97.230289 
1913.000000	97.220808 
1912.000000	97.209312 
1911.000000	97.205515 
1910.000000	97.210313 
1909.000000	97.213254 
1908.000000	97.211161 
1907.000000	97.211995 
1906.000000	97.219735 
1905.000000	97.231814 
1904.000000	97.247714 
1903.000000	97.266601 
1902.000000	97.280409 
1901.000000	97.280092 
1900.000000	97.267510 
1899.000000	97.252350 
1898.000000	97.241079 
1897.000000	97.238051 
1896.000000	97.248816 
1895.000000	97.270550 
1894.000000	97.287511 
1893.000000	97.288488 
1892.000000	97.282865 
1891.000000	97.290269 
1890.000000	97.318494 
1889.000000	97.357973 
1888.000000	97.395977 
1887.000000	97.427287 
1886.000000	97.452703 
1885.000000	97.477195 
1884.000000	97.505782 
1883.000000	97.534411 
1882.000000	97.552217 
1881.000000	97.557180 
1880.000000	97.560193 
1879.000000	97.569028 
1878.000000	97.578569 
1877.000000	97.583249 
1876.000000	97.586410 
1875.000000	97.589152 
1874.000000	97.584884 
1873.000000	97.573982 
1872.000000	97.568322 
1871.000000	97.573211 
1870.000000	97.579577 
1869.000000	97.583699 
1868.000000	97.597632 
1867.000000	97.625067 
1866.000000	97.647564 
1865.000000	97.650137 
1864.000000	97.642066 
1863.000000	97.638412 
1862.000000	97.634320 
1861.000000	97.615486 
1860.000000	97.585354 
1859.000000	97.561852 
1858.000000	97.552671 
1857.000000	97.550311 
1856.000000	97.546882 
1855.000000	97.538822 
1854.000000	97.521873 
1853.000000	97.495034 
1852.000000	97.465793 
1851.000000	97.442904 
1850.000000	97.426509 
1849.000000	97.414164 
1848.000000	97.409641 
1847.000000	97.415310 
1846.000000	97.423778 
1845.000000	97.427005 
1844.000000	97.427468 
1843.000000	97.429364 
1842.000000	97.429008 
1841.000000	97.422945 
1840.000000	97.416530 
1839.000000	97.418824 
1838.000000	97.433270 
1837.000000	97.458332 
1836.000000	97.490829 
1835.000000	97.522612 
1834.000000	97.542727 
1833.000000	97.549795 
1832.000000	97.557417 
1831.000000	97.581890 
1830.000000	97.622145 
1829.000000	97.663086 
1828.000000	97.699031 
1827.000000	97.733887 
1826.000000	97.765555 
1825.000000	97.787109 
1824.000000	97.797252 
1823.000000	97.797983 
1822.000000	97.789214 
1821.000000	97.777791 
1820.000000	97.781822 
1819.000000	97.810875 
1818.000000	97.848804 
1817.000000	97.871313 
1816.000000	97.871831 
1815.000000	97.858757 
1814.000000	97.838604 
1813.000000	97.814980 
1812.000000	97.796471 
1811.000000	97.787876 
1810.000000	97.780873 
1809.000000	97.767981 
1808.000000	97.754813 
1807.000000	97.748701 
1806.000000	97.745577 
1805.000000	97.737806 
1804.000000	97.725912 
1803.000000	97.715421 
1802.000000	97.710255 
1801.000000	97.714457 
1800.000000	97.731918 
1799.000000	97.754848 
1798.000000	97.765401 
1797.000000	97.758028 
1796.000000	97.747138 
1795.000000	97.747462 
1794.000000	97.758205 
1793.000000	97.773531 
1792.000000	97.794263 
1791.000000	97.816159 
1790.000000	97.826191 
1789.000000	97.821211 
1788.000000	97.814235 
1787.000000	97.817610 
1786.000000	97.826644 
1785.000000	97.828083 
1784.000000	97.819543 
1783.000000	97.810250 
1782.000000	97.807609 
1781.000000	97.811677 
1780.000000	97.820651 
1779.000000	97.830201 
1778.000000	97.833715 
1777.000000	97.831611 
1776.000000	97.832562 
1775.000000	97.840608 
1774.000000	97.846783 
1773.000000	97.842671 
1772.000000	97.833117 
1771.000000	97.824542 
1770.000000	97.814749 
1769.000000	97.804456 
1768.000000	97.801684 
1767.000000	97.805969 
1766.000000	97.803568 
1765.000000	97.787072 
1764.000000	97.767162 
1763.000000	97.758857 
1762.000000	97.760094 
1761.000000	97.756209 
1760.000000	97.745758 
1759.000000	97.737021 
1758.000000	97.729823 
1757.000000	97.718013 
1756.000000	97.703089 
1755.000000	97.692846 
1754.000000	97.687246 
1753.000000	97.680941 
1752.000000	97.675318 
1751.000000	97.672891 
1750.000000	97.664775 
1749.000000	97.646326 
1748.000000	97.629400 
1747.000000	97.622688 
1746.000000	97.618674 
1745.000000	97.611586 
1744.000000	97.614987 
1743.000000	97.642607 
1742.000000	97.684953 
1741.000000	97.723748 
1740.000000	97.755697 
1739.000000	97.783805 
1738.000000	97.805068 
1737.000000	97.822822 
1736.000000	97.854007 
1735.000000	97.916478 
1734.000000	97.986636 
1733.000000	98.013904 
1732.000000	98.006268 
1731.000000	98.013540 
1730.000000	98.056461 
1729.000000	98.121969 
1728.000000	98.193398 
1727.000000	98.266204 
1726.000000	98.334290 
1725.000000	98.386333 
1724.000000	98.417255 
1723.000000	98.425832 
1722.000000	98.409078 
1721.000000	98.370322 
1720.000000	98.322339 
1719.000000	98.275624 
1718.000000	98.221211 
1717.000000	98.145132 
1716.000000	98.062402 
1715.000000	97.995971 
1714.000000	97.941175 
1713.000000	97.884420 
1712.000000	97.829564 
1711.000000	97.786918 
1710.000000	97.751873 
1709.000000	97.712866 
1708.000000	97.673721 
1707.000000	97.650327 
1706.000000	97.642811 
1705.000000	97.632300 
1704.000000	97.613005 
1703.000000	97.598579 
1702.000000	97.595519 
1701.000000	97.601950 
1700.000000	97.609410 
1699.000000	97.599047 
1698.000000	97.568865 
1697.000000	97.538303 
1696.000000	97.517277 
1695.000000	97.487219 
1694.000000	97.428004 
1693.000000	97.351128 
1692.000000	97.284963 
1691.000000	97.243257 
1690.000000	97.213380 
1689.000000	97.178615 
1688.000000	97.145796 
1687.000000	97.130785 
1686.000000	97.126212 
1685.000000	97.116484 
1684.000000	97.090268 
1683.000000	97.033198 
1682.000000	96.948843 
1681.000000	96.859048 
1680.000000	96.787030 
1679.000000	96.741304 
1678.000000	96.705170 
1677.000000	96.658832 
1676.000000	96.606798 
1675.000000	96.562827 
1674.000000	96.514560 
1673.000000	96.446956 
1672.000000	96.375476 
1671.000000	96.322084 
1670.000000	96.279458 
1669.000000	96.221424 
1668.000000	96.148608 
1667.000000	96.079706 
1666.000000	96.007874 
1665.000000	95.911232 
1664.000000	95.787421 
1663.000000	95.647127 
1662.000000	95.479553 
1661.000000	95.263724 
1660.000000	95.003528 
1659.000000	94.714122 
1658.000000	94.392094 
1657.000000	94.038612 
1656.000000	93.658409 
1655.000000	93.219234 
1654.000000	92.599912 
1653.000000	91.741474 
1652.000000	90.858239 
1651.000000	90.140503 
1650.000000	89.535536 
1649.000000	88.942625 
1648.000000	88.343521 
1647.000000	87.814452 
1646.000000	87.404459 
1645.000000	87.074079 
1644.000000	86.797110 
1643.000000	86.575075 
1642.000000	86.374989 
1641.000000	86.135768 
1640.000000	85.838812 
1639.000000	85.505463 
1638.000000	85.107964 
1637.000000	84.544647 
1636.000000	83.760607 
1635.000000	82.855935 
1634.000000	81.941154 
1633.000000	81.002702 
1632.000000	80.000892 
1631.000000	78.924791 
1630.000000	77.736793 
1629.000000	76.373848 
1628.000000	74.853008 
1627.000000	73.288570 
1626.000000	71.724066 
1625.000000	70.058613 
1624.000000	68.221458 
1623.000000	66.356052 
1622.000000	64.697472 
1621.000000	63.317974 
1620.000000	62.159252 
1619.000000	61.186850 
1618.000000	60.392668 
1617.000000	59.746070 
1616.000000	59.229170 
1615.000000	58.862813 
1614.000000	58.636340 
1613.000000	58.509694 
1612.000000	58.508543 
1611.000000	58.731737 
1610.000000	59.225695 
1609.000000	59.908072 
1608.000000	60.655711 
1607.000000	61.380887 
1606.000000	61.996136 
1605.000000	62.402217 
1604.000000	62.553860 
1603.000000	62.485028 
1602.000000	62.240629 
1601.000000	61.828292 
1600.000000	61.262107 
1599.000000	60.597076 
1598.000000	59.878431 
1597.000000	59.104213 
1596.000000	58.278156 
1595.000000	57.449733 
1594.000000	56.651805 
1593.000000	55.848685 
1592.000000	55.000314 
1591.000000	54.128034 
1590.000000	53.269994 
1589.000000	52.428341 
1588.000000	51.618926 
1587.000000	50.922641 
1586.000000	50.421271 
1585.000000	50.123136 
1584.000000	50.011073 
1583.000000	50.110581 
1582.000000	50.432077 
1581.000000	50.895124 
1580.000000	51.399863 
1579.000000	51.944803 
1578.000000	52.616140 
1577.000000	53.475787 
1576.000000	54.445682 
1575.000000	55.344100 
1574.000000	56.068565 
1573.000000	56.651568 
1572.000000	57.194920 
1571.000000	57.824214 
1570.000000	58.583745 
1569.000000	59.341453 
1568.000000	59.949975 
1567.000000	60.435739 
1566.000000	60.909587 
1565.000000	61.409074 
1564.000000	61.890258 
1563.000000	62.312528 
1562.000000	62.702257 
1561.000000	63.128304 
1560.000000	63.728926 
1559.000000	64.554102 
1558.000000	65.313772 
1557.000000	65.791600 
1556.000000	66.106399 
1555.000000	66.415471 
1554.000000	66.766360 
1553.000000	67.103448 
1552.000000	67.383176 
1551.000000	67.638371 
1550.000000	67.910592 
1549.000000	68.181576 
1548.000000	68.414542 
1547.000000	68.633189 
1546.000000	68.905220 
1545.000000	69.269070 
1544.000000	69.704268 
1543.000000	70.186756 
1542.000000	70.741591 
1541.000000	71.425502 
1540.000000	72.228210 
1539.000000	73.005587 
1538.000000	73.625413 
1537.000000	74.096952 
1536.000000	74.509416 
1535.000000	74.958469 
1534.000000	75.481801 
1533.000000	75.993330 
1532.000000	76.373208 
1531.000000	76.603360 
1530.000000	76.723058 
1529.000000	76.748112 
1528.000000	76.668774 
1527.000000	76.469853 
1526.000000	76.148027 
1525.000000	75.721396 
1524.000000	75.214083 
1523.000000	74.632128 
1522.000000	73.999418 
1521.000000	73.413390 
1520.000000	72.974421 
1519.000000	72.694133 
1518.000000	72.548843 
1517.000000	72.529928 
1516.000000	72.601159 
1515.000000	72.691913 
1514.000000	72.752339 
1513.000000	72.763442 
1512.000000	72.711623 
1511.000000	72.589338 
1510.000000	72.404812 
1509.000000	72.175721 
1508.000000	71.940721 
1507.000000	71.780013 
1506.000000	71.750905 
1505.000000	71.835573 
1504.000000	72.003125 
1503.000000	72.256027 
1502.000000	72.613810 
1501.000000	73.084094 
1500.000000	73.650341 
1499.000000	74.290471 
1498.000000	75.002866 
1497.000000	75.786683 
1496.000000	76.593170 
1495.000000	77.345041 
1494.000000	78.009329 
1493.000000	78.612573 
1492.000000	79.211809 
1491.000000	79.862117 
1490.000000	80.558218 
1489.000000	81.222373 
1488.000000	81.801771 
1487.000000	82.316062 
1486.000000	82.787112 
1485.000000	83.200004 
1484.000000	83.545814 
1483.000000	83.855013 
1482.000000	84.160860 
1481.000000	84.458612 
1480.000000	84.728866 
1479.000000	84.973871 
1478.000000	85.199741 
1477.000000	85.391328 
1476.000000	85.533467 
1475.000000	85.625832 
1474.000000	85.650188 
1473.000000	85.555766 
1472.000000	85.319490 
1471.000000	84.968292 
1470.000000	84.506097 
1469.000000	83.895798 
1468.000000	83.106055 
1467.000000	82.111953 
1466.000000	80.884834 
1465.000000	79.488612 
1464.000000	78.155104 
1463.000000	77.086049 
1462.000000	76.240515 
1461.000000	75.423461 
1460.000000	74.427271 
1459.000000	73.058324 
1458.000000	71.175274 
1457.000000	69.017061 
1456.000000	67.273208 
1455.000000	66.364453 
1454.000000	66.206359 
1453.000000	66.647681 
1452.000000	67.578193 
1451.000000	68.823276 
1450.000000	70.187614 
1449.000000	71.554746 
1448.000000	72.849632 
1447.000000	73.995132 
1446.000000	74.990006 
1445.000000	75.933270 
1444.000000	76.941527 
1443.000000	78.078478 
1442.000000	79.330158 
1441.000000	80.603463 
1440.000000	81.779345 
1439.000000	82.805385 
1438.000000	83.718584 
1437.000000	84.537918 
1436.000000	85.174175 
1435.000000	85.565542 
1434.000000	85.788571 
1433.000000	85.935813 
1432.000000	86.025964 
1431.000000	86.045769 
1430.000000	85.997397 
1429.000000	85.880880 
1428.000000	85.677393 
1427.000000	85.376087 
1426.000000	84.971491 
1425.000000	84.432745 
1424.000000	83.733850 
1423.000000	82.898305 
1422.000000	81.917402 
1421.000000	80.640196 
1420.000000	78.841649 
1419.000000	76.498628 
1418.000000	73.863071 
1417.000000	71.124995 
1416.000000	68.291596 
1415.000000	65.392671 
1414.000000	62.557477 
1413.000000	59.976227 
1412.000000	57.901070 
1411.000000	56.585162 
1410.000000	56.119143 
1409.000000	56.416287 
1408.000000	57.374235 
1407.000000	58.928081 
1406.000000	60.969226 
1405.000000	63.314309 
1404.000000	65.742978 
1403.000000	68.062052 
1402.000000	70.197462 
1401.000000	72.222115 
1400.000000	74.237404 
1399.000000	76.205420 
1398.000000	77.979411 
1397.000000	79.510495 
1396.000000	80.883100 
1395.000000	82.156215 
1394.000000	83.284593 
1393.000000	84.211407 
1392.000000	84.954654 
1391.000000	85.573043 
1390.000000	86.114662 
1389.000000	86.605916 
1388.000000	87.049365 
1387.000000	87.424120 
1386.000000	87.706496 
1385.000000	87.885363 
1384.000000	87.938822 
1383.000000	87.807326 
1382.000000	87.408357 
1381.000000	86.700601 
1380.000000	85.770321 
1379.000000	84.864483 
1378.000000	84.269256 
1377.000000	84.096003 
1376.000000	84.211564 
1375.000000	84.368753 
1374.000000	84.371508 
1373.000000	84.137972 
1372.000000	83.648482 
1371.000000	82.876518 
1370.000000	81.776492 
1369.000000	80.307379 
1368.000000	78.466574 
1367.000000	76.302578 
1366.000000	73.867782 
1365.000000	71.169786 
1364.000000	68.230593 
1363.000000	65.226286 
1362.000000	62.483317 
1361.000000	60.248676 
1360.000000	58.546433 
1359.000000	57.294989 
1358.000000	56.459302 
1357.000000	56.079300 
1356.000000	56.216500 
1355.000000	56.882630 
1354.000000	57.993783 
1353.000000	59.396610 
1352.000000	60.949365 
1351.000000	62.566316 
1350.000000	64.194523 
1349.000000	65.784981 
1348.000000	67.302029 
1347.000000	68.739798 
1346.000000	70.109823 
1345.000000	71.416979 
1344.000000	72.654427 
1343.000000	73.818039 
1342.000000	74.918627 
1341.000000	75.978059 
1340.000000	77.011465 
1339.000000	78.012713 
1338.000000	78.962531 
1337.000000	79.849940 
1336.000000	80.679518 
1335.000000	81.463040 
1334.000000	82.210814 
1333.000000	82.926615 
1332.000000	83.604682 
1331.000000	84.233160 
1330.000000	84.803885 
1329.000000	85.316253 
1328.000000	85.769857 
1327.000000	86.158191 
1326.000000	86.472116 
1325.000000	86.704261 
1324.000000	86.847929 
1323.000000	86.895521 
1322.000000	86.837490 
1321.000000	86.658693 
1320.000000	86.336541 
1319.000000	85.845388 
1318.000000	85.156706 
1317.000000	84.227509 
1316.000000	82.991900 
1315.000000	81.371863 
1314.000000	79.303292 
1313.000000	76.768764 
1312.000000	73.828897 
1311.000000	70.628623 
1310.000000	67.365892 
1309.000000	64.257743 
1308.000000	61.529723 
1307.000000	59.388927 
1306.000000	57.961651 
1305.000000	57.259154 
1304.000000	57.205025 
1303.000000	57.670623 
1302.000000	58.494252 
1301.000000	59.517540 
1300.000000	60.629323 
1299.000000	61.770294 
1298.000000	62.906091 
1297.000000	64.015893 
1296.000000	65.098607 
1295.000000	66.163548 
1294.000000	67.208736 
1293.000000	68.219429 
1292.000000	69.185607 
1291.000000	70.107524 
1290.000000	70.985279 
1289.000000	71.815655 
1288.000000	72.600514 
1287.000000	73.348135 
1286.000000	74.063691 
1285.000000	74.745410 
1284.000000	75.391862 
1283.000000	76.007196 
1282.000000	76.597445 
1281.000000	77.166058 
1280.000000	77.714371 
1279.000000	78.242735 
1278.000000	78.749595 
1277.000000	79.232655 
1276.000000	79.693147 
1275.000000	80.137291 
1274.000000	80.571798 
1273.000000	80.998692 
1272.000000	81.415429 
1271.000000	81.818387 
1270.000000	82.204297 
1269.000000	82.569485 
1268.000000	82.911169 
1267.000000	83.230739 
1266.000000	83.533495 
1265.000000	83.823940 
1264.000000	84.103425 
1263.000000	84.372627 
1262.000000	84.632519 
1261.000000	84.881453 
1260.000000	85.115412 
1259.000000	85.334054 
1258.000000	85.543056 
1257.000000	85.747952 
1256.000000	85.949108 
1255.000000	86.143938 
1254.000000	86.328225 
1253.000000	86.492236 
1252.000000	86.621762 
1251.000000	86.707952 
1250.000000	86.750431 
1249.000000	86.744906 
1248.000000	86.672702 
1247.000000	86.505830 
1246.000000	86.211006 
1245.000000	85.736663 
1244.000000	85.001844 
1243.000000	83.912188 
1242.000000	82.395088 
1241.000000	80.436864 
1240.000000	78.127032 
1239.000000	75.695754 
1238.000000	73.487820 
1237.000000	71.857792 
1236.000000	71.048672 
1235.000000	71.111458 
1234.000000	71.899636 
1233.000000	73.155845 
1232.000000	74.632680 
1231.000000	76.157785 
1230.000000	77.630575 
1229.000000	78.997579 
1228.000000	80.233804 
1227.000000	81.331210 
1226.000000	82.294133 
1225.000000	83.138899 
1224.000000	83.888837 
1223.000000	84.562885 
1222.000000	85.167503 
1221.000000	85.700593 
1220.000000	86.163884 
1219.000000	86.570828 
1218.000000	86.940977 
1217.000000	87.287966 
1216.000000	87.616817 
1215.000000	87.931050 
1214.000000	88.233984 
1213.000000	88.521445 
1212.000000	88.783393 
1211.000000	89.018858 
1210.000000	89.240937 
1209.000000	89.459997 
1208.000000	89.670530 
1207.000000	89.862778 
1206.000000	90.038396 
1205.000000	90.204653 
1204.000000	90.362188 
1203.000000	90.511108 
1202.000000	90.660986 
1201.000000	90.819563 
1200.000000	90.976500 
1199.000000	91.113785 
1198.000000	91.230231 
1197.000000	91.342046 
1196.000000	91.461415 
1195.000000	91.588049 
1194.000000	91.719483 
1193.000000	91.854797 
1192.000000	91.987917 
1191.000000	92.111133 
1190.000000	92.226964 
1189.000000	92.344474 
1188.000000	92.463141 
1187.000000	92.573145 
1186.000000	92.673256 
1185.000000	92.775160 
1184.000000	92.886041 
1183.000000	92.997954 
1182.000000	93.098607 
1181.000000	93.183122 
1180.000000	93.250975 
1179.000000	93.300555 
1178.000000	93.332733 
1177.000000	93.354282 
1176.000000	93.373081 
1175.000000	93.391388 
1174.000000	93.403325 
1173.000000	93.396566 
1172.000000	93.359669 
1171.000000	93.292229 
1170.000000	93.204697 
1169.000000	93.104237 
1168.000000	92.986248 
1167.000000	92.844297 
1166.000000	92.679424 
1165.000000	92.489856 
1164.000000	92.256830 
1163.000000	91.949148 
1162.000000	91.535899 
1161.000000	90.985398 
1160.000000	90.258596 
1159.000000	89.318149 
1158.000000	88.147164 
1157.000000	86.760487 
1156.000000	85.213893 
1155.000000	83.615725 
1154.000000	82.120068 
1153.000000	80.891855 
1152.000000	80.063863 
1151.000000	79.701214 
1150.000000	79.786712 
1149.000000	80.246389 
1148.000000	80.996592 
1147.000000	81.963405 
1146.000000	83.068817 
1145.000000	84.224585 
1144.000000	85.351479 
1143.000000	86.400167 
1142.000000	87.352025 
1141.000000	88.204801 
1140.000000	88.961470 
1139.000000	89.629651 
1138.000000	90.220941 
1137.000000	90.742608 
1136.000000	91.192859 
1135.000000	91.569845 
1134.000000	91.881812 
1133.000000	92.142455 
1132.000000	92.360121 
1131.000000	92.537101 
1130.000000	92.673463 
1129.000000	92.762786 
1128.000000	92.787380 
1127.000000	92.724964 
1126.000000	92.556533 
1125.000000	92.260193 
1124.000000	91.799105 
1123.000000	91.117479 
1122.000000	90.136659 
1121.000000	88.741926 
1120.000000	86.780498 
1119.000000	84.102532 
1118.000000	80.651355 
1117.000000	76.575603 
1116.000000	72.298479 
1115.000000	68.441556 
1114.000000	65.582007 
1113.000000	64.026721 
1112.000000	63.788573 
1111.000000	64.695744 
1110.000000	66.475819 
1109.000000	68.801836 
1108.000000	71.348804 
1107.000000	73.851766 
1106.000000	76.136579 
1105.000000	78.117097 
1104.000000	79.772685 
1103.000000	81.126387 
1102.000000	82.228434 
1101.000000	83.139604 
1100.000000	83.919876 
1099.000000	84.624915 
1098.000000	85.296236 
1097.000000	85.945511 
1096.000000	86.557926 
1095.000000	87.119450 
1094.000000	87.633074 
1093.000000	88.103215 
1092.000000	88.519805 
1091.000000	88.873214 
1090.000000	89.175357 
1089.000000	89.450307 
1088.000000	89.710718 
1087.000000	89.956551 
1086.000000	90.188573 
1085.000000	90.408400 
1084.000000	90.611994 
1083.000000	90.797640 
1082.000000	90.974989 
1081.000000	91.153453 
1080.000000	91.328194 
1079.000000	91.490344 
1078.000000	91.643789 
1077.000000	91.798359 
1076.000000	91.954166 
1075.000000	92.107352 
1074.000000	92.263530 
1073.000000	92.429167 
1072.000000	92.595391 
1071.000000	92.746069 
1070.000000	92.877505 
1069.000000	92.995944 
1068.000000	93.101339 
1067.000000	93.189454 
1066.000000	93.265829 
1065.000000	93.342191 
1064.000000	93.421224 
1063.000000	93.497091 
1062.000000	93.567390 
1061.000000	93.634449 
1060.000000	93.700679 
1059.000000	93.772333 
1058.000000	93.859152 
1057.000000	93.958847 
1056.000000	94.051302 
1055.000000	94.121029 
1054.000000	94.176851 
1053.000000	94.236573 
1052.000000	94.303255 
1051.000000	94.374082 
1050.000000	94.461411 
1049.000000	94.582439 
1048.000000	94.736380 
1047.000000	94.912875 
1046.000000	95.112896 
1045.000000	95.340121 
1044.000000	95.580205 
1043.000000	95.808882 
1042.000000	96.015149 
1041.000000	96.198537 
1040.000000	96.350277 
1039.000000	96.458303 
1038.000000	96.525966 
1037.000000	96.564252 
1036.000000	96.569837 
1035.000000	96.531720 
1034.000000	96.453840 
1033.000000	96.348233 
1032.000000	96.209065 
1031.000000	96.013912 
1030.000000	95.745595 
1029.000000	95.390951 
1028.000000	94.920382 
1027.000000	94.283035 
1026.000000	93.407721 
1025.000000	92.188031 
1024.000000	90.498723 
1023.000000	88.295808 
1022.000000	85.724569 
1021.000000	83.086272 
1020.000000	80.645264 
1019.000000	78.437556 
1018.000000	76.267807 
1017.000000	73.926689 
1016.000000	71.446607 
1015.000000	69.162653 
1014.000000	67.527995 
1013.000000	66.861448 
1012.000000	67.224516 
1011.000000	68.448688 
1010.000000	70.237555 
1009.000000	72.289441 
1008.000000	74.385721 
1007.000000	76.404240 
1006.000000	78.281381 
1005.000000	79.976995 
1004.000000	81.467639 
1003.000000	82.756617 
1002.000000	83.874736 
1001.000000	84.858213 
1000.000000	85.723701 
999.000000	 86.471595 
998.000000	 87.111551 
997.000000	 87.670993 
996.000000	 88.174147 
995.000000	 88.624927 
994.000000	 89.017917 
993.000000	 89.357388 
992.000000	 89.657532 
991.000000	 89.929834 
990.000000	 90.177547 
989.000000	 90.399969 
988.000000	 90.597697 
987.000000	 90.775272 
986.000000	 90.939753 
985.000000	 91.093967 
984.000000	 91.232526 
983.000000	 91.349913 
982.000000	 91.451658 
981.000000	 91.551018 
980.000000	 91.655073 
979.000000	 91.761049 
978.000000	 91.865673 
977.000000	 91.969358 
976.000000	 92.069731 
975.000000	 92.160180 
974.000000	 92.239108 
973.000000	 92.313613 
972.000000	 92.388837 
971.000000	 92.458205 
970.000000	 92.508812 
969.000000	 92.534366 
968.000000	 92.540322 
967.000000	 92.537722 
966.000000	 92.532313 
965.000000	 92.518480 
964.000000	 92.486231 
963.000000	 92.437048 
962.000000	 92.388596 
961.000000	 92.357327 
960.000000	 92.339180 
959.000000	 92.314852 
958.000000	 92.272547 
957.000000	 92.216588 
956.000000	 92.153003 
955.000000	 92.077384 
954.000000	 91.983322 
953.000000	 91.876992 
952.000000	 91.776154 
951.000000	 91.695451 
950.000000	 91.636437 
949.000000	 91.591760 
948.000000	 91.555602 
947.000000	 91.528608 
946.000000	 91.515147 
945.000000	 91.519234 
944.000000	 91.543250 
943.000000	 91.586688 
942.000000	 91.642930 
941.000000	 91.699308 
940.000000	 91.744564 
939.000000	 91.776940 
938.000000	 91.802541 
937.000000	 91.825623 
936.000000	 91.842977 
935.000000	 91.846788 
934.000000	 91.828158 
933.000000	 91.776717 
932.000000	 91.680842 
931.000000	 91.529682 
930.000000	 91.310894 
929.000000	 91.003471 
928.000000	 90.573210 
927.000000	 89.971870 
926.000000	 89.134629 
925.000000	 87.982367 
924.000000	 86.445159 
923.000000	 84.507841 
922.000000	 82.259102 
921.000000	 79.928298 
920.000000	 77.886300 
919.000000	 76.557471 
918.000000	 76.238075 
917.000000	 76.945645 
916.000000	 78.429233 
915.000000	 80.316703 
914.000000	 82.277332 
913.000000	 84.106446 
912.000000	 85.717566 
911.000000	 87.093801 
910.000000	 88.250008 
909.000000	 89.212899 
908.000000	 90.009204 
907.000000	 90.662855 
906.000000	 91.198345 
905.000000	 91.638589 
904.000000	 91.999127 
903.000000	 92.291142 
902.000000	 92.529648 
901.000000	 92.731743 
900.000000	 92.907613 
899.000000	 93.059670 
898.000000	 93.189732 
897.000000	 93.302367 
896.000000	 93.403925 
895.000000	 93.503267 
894.000000	 93.608893 
893.000000	 93.718814 
892.000000	 93.817933 
891.000000	 93.893453 
890.000000	 93.950154 
889.000000	 94.003997 
888.000000	 94.065061 
887.000000	 94.133437 
886.000000	 94.205272 
885.000000	 94.272697 
884.000000	 94.322993 
883.000000	 94.351180 
882.000000	 94.373208 
881.000000	 94.415196 
880.000000	 94.487741 
879.000000	 94.578465 
878.000000	 94.669240 
877.000000	 94.751269 
876.000000	 94.821255 
875.000000	 94.871869 
874.000000	 94.892902 
873.000000	 94.881362 
872.000000	 94.849363 
871.000000	 94.819564 
870.000000	 94.805818 
869.000000	 94.796306 
868.000000	 94.762730 
867.000000	 94.688607 
866.000000	 94.580369 
865.000000	 94.446452 
864.000000	 94.274335 
863.000000	 94.033349 
862.000000	 93.689109 
861.000000	 93.205081 
860.000000	 92.536409 
859.000000	 91.629231 
858.000000	 90.415858 
857.000000	 88.800449 
856.000000	 86.664035 
855.000000	 83.914689 
854.000000	 80.561608 
853.000000	 76.770278 
852.000000	 72.873334 
851.000000	 69.315500 
850.000000	 66.533762 
849.000000	 64.847818 
848.000000	 64.422971 
847.000000	 65.254005 
846.000000	 67.130200 
845.000000	 69.658006 
844.000000	 72.389363 
843.000000	 74.974004 
842.000000	 77.233087 
841.000000	 79.134192 
840.000000	 80.721930 
839.000000	 82.062736 
838.000000	 83.215103 
837.000000	 84.214717 
836.000000	 85.078860 
835.000000	 85.827654 
834.000000	 86.492591 
833.000000	 87.096821 
832.000000	 87.638192 
831.000000	 88.105171 
830.000000	 88.504021 
829.000000	 88.859529 
828.000000	 89.196389 
827.000000	 89.530688 
826.000000	 89.867518 
825.000000	 90.191311 
824.000000	 90.471535 
823.000000	 90.697408 
822.000000	 90.893852 
821.000000	 91.084155 
820.000000	 91.255600 
819.000000	 91.385220 
818.000000	 91.482535 
817.000000	 91.579709 
816.000000	 91.688402 
815.000000	 91.792743 
814.000000	 91.882470 
813.000000	 91.967953 
812.000000	 92.058989 
811.000000	 92.150384 
810.000000	 92.235711 
809.000000	 92.319935 
808.000000	 92.412165 
807.000000	 92.516314 
806.000000	 92.630556 
805.000000	 92.746241 
804.000000	 92.849506 
803.000000	 92.935569 
802.000000	 93.017235 
801.000000	 93.105210 
800.000000	 93.186028 
799.000000	 93.237957 
798.000000	 93.264068 
797.000000	 93.286752 
796.000000	 93.310078 
795.000000	 93.311638 
794.000000	 93.275486 
793.000000	 93.210658 
792.000000	 93.129512 
791.000000	 93.027834 
790.000000	 92.896864 
789.000000	 92.738870 
788.000000	 92.558845 
787.000000	 92.350205 
786.000000	 92.096252 
785.000000	 91.776925 
784.000000	 91.366909 
783.000000	 90.833488 
782.000000	 90.141957 
781.000000	 89.261346 
780.000000	 88.168061 
779.000000	 86.852593 
778.000000	 85.323945 
777.000000	 83.607354 
776.000000	 81.750748 
775.000000	 79.847533 
774.000000	 78.051012 
773.000000	 76.559001 
772.000000	 75.576444 
771.000000	 75.264086 
770.000000	 75.679490 
769.000000	 76.744174 
768.000000	 78.269507 
767.000000	 80.027368 
766.000000	 81.820085 
765.000000	 83.511586 
764.000000	 85.020086 
763.000000	 86.308542 
762.000000	 87.388334 
761.000000	 88.306324 
760.000000	 89.103169 
759.000000	 89.785185 
758.000000	 90.341881 
757.000000	 90.779089 
756.000000	 91.124384 
755.000000	 91.409034 
754.000000	 91.655107 
753.000000	 91.874953 
752.000000	 92.076380 
751.000000	 92.270146 
750.000000	 92.471176 
749.000000	 92.685170 
748.000000	 92.896688 
747.000000	 93.083911 
746.000000	 93.246537 
745.000000	 93.404872 
744.000000	 93.568659 
743.000000	 93.722602 
742.000000	 93.849182 
741.000000	 93.951301 
740.000000	 94.043568 
739.000000	 94.133471 
738.000000	 94.220141 
737.000000	 94.301662 
736.000000	 94.375577 
735.000000	 94.440248 
734.000000	 94.500954 
733.000000	 94.565246 
732.000000	 94.627804 
731.000000	 94.672003 
730.000000	 94.693315 
729.000000	 94.709535 
728.000000	 94.741347 
727.000000	 94.793871 
726.000000	 94.865159 
725.000000	 94.959618 
724.000000	 95.076320 
723.000000	 95.190517 
722.000000	 95.264387 
721.000000	 95.283063 
720.000000	 95.274284 
719.000000	 95.280827 
718.000000	 95.315340 
717.000000	 95.354257 
716.000000	 95.370176 
715.000000	 95.359531 
714.000000	 95.338299 
713.000000	 95.317829 
712.000000	 95.296291 
711.000000	 95.273750 
710.000000	 95.261587 
709.000000	 95.269135 
708.000000	 95.290950 
707.000000	 95.314453 
706.000000	 95.330300 
705.000000	 95.330545 
704.000000	 95.308206 
703.000000	 95.269183 
702.000000	 95.235598 
701.000000	 95.222453 
700.000000	 95.219252 
699.000000	 95.211387 
698.000000	 95.208452 
697.000000	 95.230594 
696.000000	 95.270917 
695.000000	 95.297197 
694.000000	 95.298741 
693.000000	 95.305341 
692.000000	 95.345152 
691.000000	 95.401432 
690.000000	 95.427826 
689.000000	 95.402229 
688.000000	 95.350215 
687.000000	 95.313095 
686.000000	 95.304731 
685.000000	 95.306503 
684.000000	 95.298561 
683.000000	 95.284107 
682.000000	 95.276210 
681.000000	 95.267504 
680.000000	 95.229827 
679.000000	 95.152715 
678.000000	 95.068687 
677.000000	 95.026165 
676.000000	 95.043152 
675.000000	 95.094453 
674.000000	 95.132775 
673.000000	 95.124263 
672.000000	 95.070737 
671.000000	 94.989124 
670.000000	 94.864832 
669.000000	 94.620500 
668.000000	 94.242858 
667.000000	 93.906357 
666.000000	 93.708750 
665.000000	 93.552449 
664.000000	 93.329218 
663.000000	 92.972723 
662.000000	 92.469105 
661.000000	 91.810140 
660.000000	 90.955168 
659.000000	 89.864518 
658.000000	 88.534670 
657.000000	 86.961938 
656.000000	 85.129474 
655.000000	 83.077340 
654.000000	 80.886439 
653.000000	 78.635901 
652.000000	 76.410790 
651.000000	 74.408039 
650.000000	 72.735677 

