PE IR                   SPECTRUM    ASCII       PEDS        1.60        
  -1
~SP.SP
18/03/23
17:28:09.00
18/03/23
17:28:09.00
pili
Irradiada
650.000000
4









SPECTRUM 100,CPU32 MAIN 00.02.8200 12-DECEMBER-2006 10:00:00
MIR TGS
MIR
OPTKBR
78890
0.200000

4.000000
STRONG
RATIO
SPECTRUM
MAGNITUDE
UNIVERSAL ATR
DOUBLE

COMBINED


0


#HDR
-1
-1
#GR
CM-1
%T
0.00002384185791015625
0.0
4000.000000
-1.000000
3351
8
98.642125
36.545900
#DATA
4000.000000	97.297123 
3999.000000	97.296259 
3998.000000	97.292809 
3997.000000	97.290313 
3996.000000	97.290602 
3995.000000	97.294149 
3994.000000	97.301238 
3993.000000	97.311883 
3992.000000	97.325090 
3991.000000	97.339059 
3990.000000	97.352033 
3989.000000	97.362406 
3988.000000	97.368374 
3987.000000	97.368546 
3986.000000	97.363275 
3985.000000	97.354803 
3984.000000	97.345431 
3983.000000	97.335836 
3982.000000	97.325906 
3981.000000	97.316982 
3980.000000	97.312007 
3979.000000	97.312492 
3978.000000	97.316031 
3977.000000	97.318214 
3976.000000	97.317373 
3975.000000	97.316102 
3974.000000	97.317150 
3973.000000	97.318689 
3972.000000	97.315515 
3971.000000	97.305161 
3970.000000	97.291682 
3969.000000	97.282757 
3968.000000	97.283392 
3967.000000	97.292651 
3966.000000	97.305393 
3965.000000	97.316087 
3964.000000	97.321157 
3963.000000	97.319062 
3962.000000	97.309684 
3961.000000	97.294419 
3960.000000	97.276935 
3959.000000	97.262866 
3958.000000	97.257438 
3957.000000	97.262632 
3956.000000	97.276574 
3955.000000	97.295458 
3954.000000	97.315607 
3953.000000	97.333896 
3952.000000	97.347659 
3951.000000	97.355664 
3950.000000	97.359304 
3949.000000	97.361930 
3948.000000	97.366080 
3947.000000	97.371189 
3946.000000	97.374170 
3945.000000	97.372436 
3944.000000	97.366772 
3943.000000	97.360987 
3942.000000	97.358051 
3941.000000	97.356911 
3940.000000	97.354257 
3939.000000	97.348786 
3938.000000	97.342749 
3937.000000	97.339094 
3936.000000	97.337842 
3935.000000	97.335994 
3934.000000	97.330979 
3933.000000	97.323891 
3932.000000	97.319015 
3931.000000	97.319752 
3930.000000	97.325199 
3929.000000	97.330579 
3928.000000	97.330738 
3927.000000	97.323895 
3926.000000	97.313172 
3925.000000	97.304529 
3924.000000	97.302289 
3923.000000	97.306684 
3922.000000	97.315384 
3921.000000	97.326176 
3920.000000	97.337700 
3919.000000	97.348409 
3918.000000	97.356073 
3917.000000	97.359090 
3916.000000	97.358271 
3915.000000	97.356642 
3914.000000	97.357145 
3913.000000	97.360104 
3912.000000	97.362763 
3911.000000	97.361545 
3910.000000	97.355523 
3909.000000	97.347971 
3908.000000	97.344097 
3907.000000	97.346855 
3906.000000	97.354264 
3905.000000	97.361396 
3904.000000	97.365666 
3903.000000	97.369360 
3902.000000	97.375667 
3901.000000	97.383738 
3900.000000	97.389459 
3899.000000	97.390491 
3898.000000	97.388712 
3897.000000	97.387550 
3896.000000	97.388572 
3895.000000	97.390680 
3894.000000	97.391501 
3893.000000	97.389254 
3892.000000	97.384343 
3891.000000	97.378443 
3890.000000	97.371728 
3889.000000	97.362585 
3888.000000	97.350533 
3887.000000	97.339850 
3886.000000	97.339223 
3885.000000	97.353213 
3884.000000	97.376223 
3883.000000	97.397824 
3882.000000	97.410871 
3881.000000	97.414507 
3880.000000	97.411773 
3879.000000	97.405010 
3878.000000	97.394893 
3877.000000	97.383008 
3876.000000	97.373756 
3875.000000	97.372697 
3874.000000	97.381126 
3873.000000	97.393229 
3872.000000	97.400363 
3871.000000	97.398728 
3870.000000	97.392784 
3869.000000	97.389382 
3868.000000	97.390684 
3867.000000	97.394824 
3866.000000	97.399417 
3865.000000	97.401783 
3864.000000	97.398340 
3863.000000	97.387621 
3862.000000	97.373826 
3861.000000	97.363732 
3860.000000	97.359832 
3859.000000	97.357948 
3858.000000	97.352214 
3857.000000	97.341716 
3856.000000	97.331650 
3855.000000	97.330127 
3854.000000	97.342430 
3853.000000	97.362288 
3852.000000	97.376684 
3851.000000	97.381129 
3850.000000	97.381656 
3849.000000	97.386912 
3848.000000	97.401018 
3847.000000	97.421073 
3846.000000	97.439963 
3845.000000	97.451035 
3844.000000	97.451453 
3843.000000	97.442380 
3842.000000	97.427191 
3841.000000	97.410458 
3840.000000	97.398070 
3839.000000	97.395126 
3838.000000	97.401468 
3837.000000	97.410917 
3836.000000	97.416977 
3835.000000	97.417851 
3834.000000	97.415367 
3833.000000	97.411393 
3832.000000	97.406675 
3831.000000	97.401938 
3830.000000	97.398558 
3829.000000	97.397502 
3828.000000	97.398286 
3827.000000	97.399100 
3826.000000	97.397348 
3825.000000	97.390582 
3824.000000	97.378355 
3823.000000	97.364454 
3822.000000	97.357462 
3821.000000	97.363301 
3820.000000	97.376702 
3819.000000	97.387730 
3818.000000	97.392751 
3817.000000	97.396248 
3816.000000	97.404939 
3815.000000	97.418834 
3814.000000	97.430442 
3813.000000	97.433082 
3812.000000	97.425850 
3811.000000	97.412059 
3810.000000	97.395791 
3809.000000	97.380420 
3808.000000	97.369812 
3807.000000	97.367629 
3806.000000	97.372851 
3805.000000	97.379792 
3804.000000	97.383806 
3803.000000	97.385157 
3802.000000	97.388626 
3801.000000	97.397351 
3800.000000	97.407770 
3799.000000	97.414388 
3798.000000	97.416027 
3797.000000	97.415882 
3796.000000	97.417246 
3795.000000	97.420298 
3794.000000	97.423329 
3793.000000	97.425419 
3792.000000	97.426376 
3791.000000	97.425187 
3790.000000	97.420462 
3789.000000	97.412802 
3788.000000	97.405678 
3787.000000	97.402981 
3786.000000	97.405675 
3785.000000	97.411152 
3784.000000	97.416082 
3783.000000	97.419392 
3782.000000	97.422629 
3781.000000	97.428016 
3780.000000	97.436082 
3779.000000	97.444104 
3778.000000	97.447004 
3777.000000	97.440421 
3776.000000	97.423456 
3775.000000	97.399243 
3774.000000	97.373251 
3773.000000	97.350624 
3772.000000	97.335304 
3771.000000	97.330561 
3770.000000	97.338017 
3769.000000	97.355233 
3768.000000	97.375874 
3767.000000	97.392493 
3766.000000	97.399535 
3765.000000	97.396060 
3764.000000	97.387136 
3763.000000	97.381728 
3762.000000	97.387577 
3761.000000	97.405415 
3760.000000	97.425773 
3759.000000	97.434393 
3758.000000	97.425133 
3757.000000	97.405462 
3756.000000	97.388281 
3755.000000	97.380916 
3754.000000	97.381229 
3753.000000	97.381837 
3752.000000	97.378168 
3751.000000	97.373287 
3750.000000	97.373172 
3749.000000	97.378566 
3748.000000	97.385383 
3747.000000	97.389652 
3746.000000	97.389139 
3745.000000	97.386139 
3744.000000	97.385535 
3743.000000	97.386781 
3742.000000	97.386087 
3741.000000	97.383738 
3740.000000	97.383832 
3739.000000	97.388672 
3738.000000	97.395268 
3737.000000	97.400122 
3736.000000	97.405613 
3735.000000	97.416457 
3734.000000	97.430267 
3733.000000	97.437990 
3732.000000	97.433117 
3731.000000	97.417541 
3730.000000	97.399230 
3729.000000	97.386655 
3728.000000	97.385208 
3727.000000	97.395939 
3726.000000	97.413800 
3725.000000	97.429098 
3724.000000	97.434771 
3723.000000	97.432288 
3722.000000	97.429751 
3721.000000	97.434231 
3720.000000	97.445839 
3719.000000	97.458079 
3718.000000	97.463484 
3717.000000	97.459204 
3716.000000	97.448044 
3715.000000	97.436043 
3714.000000	97.428029 
3713.000000	97.426054 
3712.000000	97.428661 
3711.000000	97.432374 
3710.000000	97.434579 
3709.000000	97.435426 
3708.000000	97.437046 
3707.000000	97.439970 
3706.000000	97.442888 
3705.000000	97.443220 
3704.000000	97.440571 
3703.000000	97.436968 
3702.000000	97.434923 
3701.000000	97.434381 
3700.000000	97.434042 
3699.000000	97.434030 
3698.000000	97.436091 
3697.000000	97.441475 
3696.000000	97.448845 
3695.000000	97.456169 
3694.000000	97.462879 
3693.000000	97.471451 
3692.000000	97.484168 
3691.000000	97.499977 
3690.000000	97.512278 
3689.000000	97.513504 
3688.000000	97.502747 
3687.000000	97.486740 
3686.000000	97.474804 
3685.000000	97.472293 
3684.000000	97.479109 
3683.000000	97.490556 
3682.000000	97.501848 
3681.000000	97.510517 
3680.000000	97.515400 
3679.000000	97.513308 
3678.000000	97.499433 
3677.000000	97.474449 
3676.000000	97.451571 
3675.000000	97.445955 
3674.000000	97.456889 
3673.000000	97.473244 
3672.000000	97.487252 
3671.000000	97.498130 
3670.000000	97.507737 
3669.000000	97.515226 
3668.000000	97.518182 
3667.000000	97.517903 
3666.000000	97.519176 
3665.000000	97.525552 
3664.000000	97.535246 
3663.000000	97.542538 
3662.000000	97.543768 
3661.000000	97.541507 
3660.000000	97.541727 
3659.000000	97.546907 
3658.000000	97.552760 
3657.000000	97.552742 
3656.000000	97.545877 
3655.000000	97.537868 
3654.000000	97.535212 
3653.000000	97.540125 
3652.000000	97.549188 
3651.000000	97.554888 
3650.000000	97.551826 
3649.000000	97.544524 
3648.000000	97.544987 
3647.000000	97.559519 
3646.000000	97.582278 
3645.000000	97.602147 
3644.000000	97.612238 
3643.000000	97.613302 
3642.000000	97.610333 
3641.000000	97.606151 
3640.000000	97.598656 
3639.000000	97.584741 
3638.000000	97.565741 
3637.000000	97.547734 
3636.000000	97.536986 
3635.000000	97.536058 
3634.000000	97.544072 
3633.000000	97.559119 
3632.000000	97.579203 
3631.000000	97.599594 
3630.000000	97.612575 
3629.000000	97.614808 
3628.000000	97.612658 
3627.000000	97.615264 
3626.000000	97.625034 
3625.000000	97.636758 
3624.000000	97.642953 
3623.000000	97.640253 
3622.000000	97.632624 
3621.000000	97.628564 
3620.000000	97.633618 
3619.000000	97.644838 
3618.000000	97.654390 
3617.000000	97.657687 
3616.000000	97.655103 
3615.000000	97.648049 
3614.000000	97.637287 
3613.000000	97.625544 
3612.000000	97.619139 
3611.000000	97.624654 
3610.000000	97.642827 
3609.000000	97.666870 
3608.000000	97.687649 
3607.000000	97.700671 
3606.000000	97.708046 
3605.000000	97.713538 
3604.000000	97.718500 
3603.000000	97.721576 
3602.000000	97.721877 
3601.000000	97.721375 
3600.000000	97.723601 
3599.000000	97.731224 
3598.000000	97.744508 
3597.000000	97.761859 
3596.000000	97.780137 
3595.000000	97.796110 
3594.000000	97.807093 
3593.000000	97.811619 
3592.000000	97.809113 
3591.000000	97.801206 
3590.000000	97.793050 
3589.000000	97.792558 
3588.000000	97.804252 
3587.000000	97.823273 
3586.000000	97.841125 
3585.000000	97.855259 
3584.000000	97.868650 
3583.000000	97.881551 
3582.000000	97.889146 
3581.000000	97.887631 
3580.000000	97.879859 
3579.000000	97.873041 
3578.000000	97.871840 
3577.000000	97.876801 
3576.000000	97.886251 
3575.000000	97.896856 
3574.000000	97.901941 
3573.000000	97.895352 
3572.000000	97.878461 
3571.000000	97.861943 
3570.000000	97.857789 
3569.000000	97.870148 
3568.000000	97.893199 
3567.000000	97.918077 
3566.000000	97.940521 
3565.000000	97.961419 
3564.000000	97.981974 
3563.000000	98.001083 
3562.000000	98.016131 
3561.000000	98.024857 
3560.000000	98.026847 
3559.000000	98.024434 
3558.000000	98.022162 
3557.000000	98.024948 
3556.000000	98.036120 
3555.000000	98.056542 
3554.000000	98.083998 
3553.000000	98.113162 
3552.000000	98.137940 
3551.000000	98.155703 
3550.000000	98.168113 
3549.000000	98.176233 
3548.000000	98.176425 
3547.000000	98.164741 
3546.000000	98.146228 
3545.000000	98.135060 
3544.000000	98.141261 
3543.000000	98.160070 
3542.000000	98.177294 
3541.000000	98.183611 
3540.000000	98.181495 
3539.000000	98.180234 
3538.000000	98.187389 
3537.000000	98.205018 
3536.000000	98.229861 
3535.000000	98.254957 
3534.000000	98.273010 
3533.000000	98.280950 
3532.000000	98.281623 
3531.000000	98.280620 
3530.000000	98.281815 
3529.000000	98.285943 
3528.000000	98.291864 
3527.000000	98.297626 
3526.000000	98.301383 
3525.000000	98.303427 
3524.000000	98.307773 
3523.000000	98.320174 
3522.000000	98.343006 
3521.000000	98.371359 
3520.000000	98.394305 
3519.000000	98.402289 
3518.000000	98.396354 
3517.000000	98.390199 
3516.000000	98.399490 
3515.000000	98.427276 
3514.000000	98.460773 
3513.000000	98.483402 
3512.000000	98.488583 
3511.000000	98.481461 
3510.000000	98.470097 
3509.000000	98.458031 
3508.000000	98.444990 
3507.000000	98.431773 
3506.000000	98.422863 
3505.000000	98.424453 
3504.000000	98.439054 
3503.000000	98.460984 
3502.000000	98.478916 
3501.000000	98.484736 
3500.000000	98.479587 
3499.000000	98.471250 
3498.000000	98.467275 
3497.000000	98.470292 
3496.000000	98.476646 
3495.000000	98.477725 
3494.000000	98.465234 
3493.000000	98.439180 
3492.000000	98.410704 
3491.000000	98.394342 
3490.000000	98.396929 
3489.000000	98.415069 
3488.000000	98.441971 
3487.000000	98.472557 
3486.000000	98.501429 
3485.000000	98.520739 
3484.000000	98.524114 
3483.000000	98.512089 
3482.000000	98.492045 
3481.000000	98.473348 
3480.000000	98.463526 
3479.000000	98.466642 
3478.000000	98.481408 
3477.000000	98.500205 
3476.000000	98.512647 
3475.000000	98.512746 
3474.000000	98.503470 
3473.000000	98.494422 
3472.000000	98.495147 
3471.000000	98.509039 
3470.000000	98.531264 
3469.000000	98.552197 
3468.000000	98.564543 
3467.000000	98.568565 
3466.000000	98.570054 
3465.000000	98.573105 
3464.000000	98.576174 
3463.000000	98.575944 
3462.000000	98.573868 
3461.000000	98.576587 
3460.000000	98.589137 
3459.000000	98.608951 
3458.000000	98.627726 
3457.000000	98.638890 
3456.000000	98.642125 
3455.000000	98.640779 
3454.000000	98.636726 
3453.000000	98.629589 
3452.000000	98.620385 
3451.000000	98.613197 
3450.000000	98.611735 
3449.000000	98.615365 
3448.000000	98.620327 
3447.000000	98.624474 
3446.000000	98.628898 
3445.000000	98.634559 
3444.000000	98.639634 
3443.000000	98.641667 
3442.000000	98.640921 
3441.000000	98.639900 
3440.000000	98.639983 
3439.000000	98.640066 
3438.000000	98.638175 
3437.000000	98.633088 
3436.000000	98.624655 
3435.000000	98.613906 
3434.000000	98.602828 
3433.000000	98.593056 
3432.000000	98.585344 
3431.000000	98.581684 
3430.000000	98.586271 
3429.000000	98.600656 
3428.000000	98.617688 
3427.000000	98.624748 
3426.000000	98.616017 
3425.000000	98.598989 
3424.000000	98.586181 
3423.000000	98.582343 
3422.000000	98.582663 
3421.000000	98.581816 
3420.000000	98.580336 
3419.000000	98.581892 
3418.000000	98.587873 
3417.000000	98.595483 
3416.000000	98.598584 
3415.000000	98.590446 
3414.000000	98.569581 
3413.000000	98.544601 
3412.000000	98.529843 
3411.000000	98.532784 
3410.000000	98.546564 
3409.000000	98.556819 
3408.000000	98.555357 
3407.000000	98.546171 
3406.000000	98.539073 
3405.000000	98.539608 
3404.000000	98.545230 
3403.000000	98.549402 
3402.000000	98.547981 
3401.000000	98.541588 
3400.000000	98.532801 
3399.000000	98.522648 
3398.000000	98.510640 
3397.000000	98.497338 
3396.000000	98.485542 
3395.000000	98.478746 
3394.000000	98.478794 
3393.000000	98.484499 
3392.000000	98.491949 
3391.000000	98.497100 
3390.000000	98.499011 
3389.000000	98.499778 
3388.000000	98.500708 
3387.000000	98.500104 
3386.000000	98.496061 
3385.000000	98.489458 
3384.000000	98.481848 
3383.000000	98.472270 
3382.000000	98.459862 
3381.000000	98.448625 
3380.000000	98.445167 
3379.000000	98.450739 
3378.000000	98.458800 
3377.000000	98.461796 
3376.000000	98.457729 
3375.000000	98.449286 
3374.000000	98.439986 
3373.000000	98.433392 
3372.000000	98.433401 
3371.000000	98.442038 
3370.000000	98.457067 
3369.000000	98.472880 
3368.000000	98.483451 
3367.000000	98.485018 
3366.000000	98.478545 
3365.000000	98.470442 
3364.000000	98.468191 
3363.000000	98.473365 
3362.000000	98.480241 
3361.000000	98.482204 
3360.000000	98.477523 
3359.000000	98.468011 
3358.000000	98.455091 
3357.000000	98.439800 
3356.000000	98.424814 
3355.000000	98.413252 
3354.000000	98.405417 
3353.000000	98.398524 
3352.000000	98.389982 
3351.000000	98.380964 
3350.000000	98.377430 
3349.000000	98.386611 
3348.000000	98.409252 
3347.000000	98.434426 
3346.000000	98.446045 
3345.000000	98.437776 
3344.000000	98.419745 
3343.000000	98.407673 
3342.000000	98.406579 
3341.000000	98.407792 
3340.000000	98.400503 
3339.000000	98.382849 
3338.000000	98.361476 
3337.000000	98.343366 
3336.000000	98.329824 
3335.000000	98.317406 
3334.000000	98.303293 
3333.000000	98.288742 
3332.000000	98.276809 
3331.000000	98.267911 
3330.000000	98.260307 
3329.000000	98.255123 
3328.000000	98.257088 
3327.000000	98.267690 
3326.000000	98.280344 
3325.000000	98.285997 
3324.000000	98.282138 
3323.000000	98.272807 
3322.000000	98.260589 
3321.000000	98.242937 
3320.000000	98.217111 
3319.000000	98.185324 
3318.000000	98.153304 
3317.000000	98.125996 
3316.000000	98.106175 
3315.000000	98.094949 
3314.000000	98.090865 
3313.000000	98.088939 
3312.000000	98.082853 
3311.000000	98.069245 
3310.000000	98.049679 
3309.000000	98.028267 
3308.000000	98.007513 
3307.000000	97.986234 
3306.000000	97.960956 
3305.000000	97.929319 
3304.000000	97.893052 
3303.000000	97.858560 
3302.000000	97.833760 
3301.000000	97.821706 
3300.000000	97.815761 
3299.000000	97.802977 
3298.000000	97.775376 
3297.000000	97.738295 
3296.000000	97.705510 
3295.000000	97.685693 
3294.000000	97.675541 
3293.000000	97.666062 
3292.000000	97.652461 
3291.000000	97.636199 
3290.000000	97.619929 
3289.000000	97.604003 
3288.000000	97.587953 
3287.000000	97.572659 
3286.000000	97.559124 
3285.000000	97.545241 
3284.000000	97.525457 
3283.000000	97.495979 
3282.000000	97.461217 
3281.000000	97.432769 
3280.000000	97.418911 
3279.000000	97.415552 
3278.000000	97.410576 
3277.000000	97.397263 
3276.000000	97.380392 
3275.000000	97.368538 
3274.000000	97.364037 
3273.000000	97.362513 
3272.000000	97.358789 
3271.000000	97.350082 
3270.000000	97.335464 
3269.000000	97.315551 
3268.000000	97.292095 
3267.000000	97.265872 
3266.000000	97.236103 
3265.000000	97.203962 
3264.000000	97.175226 
3263.000000	97.156762 
3262.000000	97.150685 
3261.000000	97.153438 
3260.000000	97.159044 
3259.000000	97.160772 
3258.000000	97.151149 
3257.000000	97.124872 
3256.000000	97.083679 
3255.000000	97.036648 
3254.000000	96.994212 
3253.000000	96.961872 
3252.000000	96.938811 
3251.000000	96.920469 
3250.000000	96.901685 
3249.000000	96.878932 
3248.000000	96.851230 
3247.000000	96.819564 
3246.000000	96.785873 
3245.000000	96.752841 
3244.000000	96.723910 
3243.000000	96.702104 
3242.000000	96.687844 
3241.000000	96.677347 
3240.000000	96.663228 
3239.000000	96.638314 
3238.000000	96.601237 
3237.000000	96.558827 
3236.000000	96.521341 
3235.000000	96.494209 
3234.000000	96.474922 
3233.000000	96.457427 
3232.000000	96.437345 
3231.000000	96.412602 
3230.000000	96.382263 
3229.000000	96.347332 
3228.000000	96.311238 
3227.000000	96.277220 
3226.000000	96.246201 
3225.000000	96.218933 
3224.000000	96.198300 
3223.000000	96.186010 
3222.000000	96.177269 
3221.000000	96.162333 
3220.000000	96.135169 
3219.000000	96.099018 
3218.000000	96.062136 
3217.000000	96.029566 
3216.000000	96.000611 
3215.000000	95.972976 
3214.000000	95.946469 
3213.000000	95.921714 
3212.000000	95.897298 
3211.000000	95.870722 
3210.000000	95.842068 
3209.000000	95.814089 
3208.000000	95.787097 
3207.000000	95.755764 
3206.000000	95.713885 
3205.000000	95.662118 
3204.000000	95.608382 
3203.000000	95.559682 
3202.000000	95.515209 
3201.000000	95.468410 
3200.000000	95.414594 
3199.000000	95.355726 
3198.000000	95.298774 
3197.000000	95.249732 
3196.000000	95.207834 
3195.000000	95.164910 
3194.000000	95.111712 
3193.000000	95.045929 
3192.000000	94.973350 
3191.000000	94.900870 
3190.000000	94.829986 
3189.000000	94.758084 
3188.000000	94.683926 
3187.000000	94.609027 
3186.000000	94.533919 
3185.000000	94.455974 
3184.000000	94.372794 
3183.000000	94.286576 
3182.000000	94.202744 
3181.000000	94.123694 
3180.000000	94.045790 
3179.000000	93.964283 
3178.000000	93.879940 
3177.000000	93.797868 
3176.000000	93.720003 
3175.000000	93.642635 
3174.000000	93.562718 
3173.000000	93.482745 
3172.000000	93.406364 
3171.000000	93.332524 
3170.000000	93.258667 
3169.000000	93.187898 
3168.000000	93.127312 
3167.000000	93.078411 
3166.000000	93.033110 
3165.000000	92.980154 
3164.000000	92.912737 
3163.000000	92.830597 
3162.000000	92.739603 
3161.000000	92.650329 
3160.000000	92.571772 
3159.000000	92.503081 
3158.000000	92.434551 
3157.000000	92.359443 
3156.000000	92.281804 
3155.000000	92.209488 
3154.000000	92.142126 
3153.000000	92.070209 
3152.000000	91.985464 
3151.000000	91.888684 
3150.000000	91.787011 
3149.000000	91.686157 
3148.000000	91.586398 
3147.000000	91.484878 
3146.000000	91.380418 
3145.000000	91.275240 
3144.000000	91.171363 
3143.000000	91.065903 
3142.000000	90.951724 
3141.000000	90.823564 
3140.000000	90.682726 
3139.000000	90.535637 
3138.000000	90.388803 
3137.000000	90.244809 
3136.000000	90.101214 
3135.000000	89.952595 
3134.000000	89.795079 
3133.000000	89.629392 
3132.000000	89.458426 
3131.000000	89.282269 
3130.000000	89.097926 
3129.000000	88.904212 
3128.000000	88.704413 
3127.000000	88.502939 
3126.000000	88.300846 
3125.000000	88.095128 
3124.000000	87.880795 
3123.000000	87.653858 
3122.000000	87.415328 
3121.000000	87.173437 
3120.000000	86.938961 
3119.000000	86.715897 
3118.000000	86.497527 
3117.000000	86.272605 
3116.000000	86.034341 
3115.000000	85.783428 
3114.000000	85.525708 
3113.000000	85.269380 
3112.000000	85.022277 
3111.000000	84.787969 
3110.000000	84.563367 
3109.000000	84.341110 
3108.000000	84.115060 
3107.000000	83.884256 
3106.000000	83.652698 
3105.000000	83.425314 
3104.000000	83.202877 
3103.000000	82.980577 
3102.000000	82.752814 
3101.000000	82.519498 
3100.000000	82.285951 
3099.000000	82.056384 
3098.000000	81.829571 
3097.000000	81.601805 
3096.000000	81.372333 
3095.000000	81.144245 
3094.000000	80.920563 
3093.000000	80.700732 
3092.000000	80.481464 
3091.000000	80.261139 
3090.000000	80.042924 
3089.000000	79.832024 
3088.000000	79.629293 
3087.000000	79.429701 
3086.000000	79.229298 
3085.000000	79.032243 
3084.000000	78.848070 
3083.000000	78.682676 
3082.000000	78.534541 
3081.000000	78.399411 
3080.000000	78.275864 
3079.000000	78.166014 
3078.000000	78.073279 
3077.000000	78.000011 
3076.000000	77.945453 
3075.000000	77.905804 
3074.000000	77.878011 
3073.000000	77.863430 
3072.000000	77.865884 
3071.000000	77.886444 
3070.000000	77.922514 
3069.000000	77.971985 
3068.000000	78.035532 
3067.000000	78.113777 
3066.000000	78.204054 
3065.000000	78.301121 
3064.000000	78.400236 
3063.000000	78.499497 
3062.000000	78.600360 
3061.000000	78.705870 
3060.000000	78.816950 
3059.000000	78.930297 
3058.000000	79.040858 
3057.000000	79.146076 
3056.000000	79.246841 
3055.000000	79.345187 
3054.000000	79.442507 
3053.000000	79.538939 
3052.000000	79.632508 
3051.000000	79.719782 
3050.000000	79.799652 
3049.000000	79.876172 
3048.000000	79.955709 
3047.000000	80.041540 
3046.000000	80.132370 
3045.000000	80.224286 
3044.000000	80.311697 
3043.000000	80.388319 
3042.000000	80.451188 
3041.000000	80.503505 
3040.000000	80.550636 
3039.000000	80.594280 
3038.000000	80.634052 
3037.000000	80.673369 
3036.000000	80.718018 
3035.000000	80.767917 
3034.000000	80.815547 
3033.000000	80.855260 
3032.000000	80.890550 
3031.000000	80.929515 
3030.000000	80.976208 
3029.000000	81.029021 
3028.000000	81.084315 
3027.000000	81.137912 
3026.000000	81.185210 
3025.000000	81.224212 
3024.000000	81.258951 
3023.000000	81.297537 
3022.000000	81.346010 
3021.000000	81.404161 
3020.000000	81.465701 
3019.000000	81.521253 
3018.000000	81.563175 
3017.000000	81.590611 
3016.000000	81.609978 
3015.000000	81.628425 
3014.000000	81.646088 
3013.000000	81.655292 
3012.000000	81.646771 
3011.000000	81.614841 
3010.000000	81.555377 
3009.000000	81.459573 
3008.000000	81.312744 
3007.000000	81.104943 
3006.000000	80.848732 
3005.000000	80.589098 
3004.000000	80.391756 
3003.000000	80.312861 
3002.000000	80.370555 
3001.000000	80.537117 
3000.000000	80.755224 
2999.000000	80.965801 
2998.000000	81.130026 
2997.000000	81.233652 
2996.000000	81.274628 
2995.000000	81.247439 
2994.000000	81.137266 
2993.000000	80.926731 
2992.000000	80.608955 
2991.000000	80.199547 
2990.000000	79.741866 
2989.000000	79.298532 
2988.000000	78.927639 
2987.000000	78.658243 
2986.000000	78.486779 
2985.000000	78.399510 
2984.000000	78.398300 
2983.000000	78.502138 
2982.000000	78.722551 
2981.000000	79.038325 
2980.000000	79.395648 
2979.000000	79.734322 
2978.000000	80.016408 
2977.000000	80.234399 
2976.000000	80.398638 
2975.000000	80.521539 
2974.000000	80.612321 
2973.000000	80.680332 
2972.000000	80.737690 
2971.000000	80.797175 
2970.000000	80.867347 
2969.000000	80.948430 
2968.000000	81.032479 
2967.000000	81.109364 
2966.000000	81.174575 
2965.000000	81.230840 
2964.000000	81.281715 
2963.000000	81.324777 
2962.000000	81.351568 
2961.000000	81.352304 
2960.000000	81.319121 
2959.000000	81.247072 
2958.000000	81.135378 
2957.000000	80.988698 
2956.000000	80.816855 
2955.000000	80.634294 
2954.000000	80.459926 
2953.000000	80.313989 
2952.000000	80.210417 
2951.000000	80.150691 
2950.000000	80.125867 
2949.000000	80.123981 
2948.000000	80.134418 
2947.000000	80.147010 
2946.000000	80.150815 
2945.000000	80.136457 
2944.000000	80.100472 
2943.000000	80.047229 
2942.000000	79.985391 
2941.000000	79.920588 
2940.000000	79.851255 
2939.000000	79.772998 
2938.000000	79.686505 
2937.000000	79.598052 
2936.000000	79.511711 
2935.000000	79.425038 
2934.000000	79.334571 
2933.000000	79.242011 
2932.000000	79.151845 
2931.000000	79.065633 
2930.000000	78.982112 
2929.000000	78.900817 
2928.000000	78.821958 
2927.000000	78.744305 
2926.000000	78.666766 
2925.000000	78.590926 
2924.000000	78.518822 
2923.000000	78.449753 
2922.000000	78.383070 
2921.000000	78.322985 
2920.000000	78.276278 
2919.000000	78.244915 
2918.000000	78.223987 
2917.000000	78.207355 
2916.000000	78.192935 
2915.000000	78.182399 
2914.000000	78.178014 
2913.000000	78.180275 
2912.000000	78.187046 
2911.000000	78.194566 
2910.000000	78.199995 
2909.000000	78.202654 
2908.000000	78.202897 
2907.000000	78.201480 
2906.000000	78.200390 
2905.000000	78.201248 
2904.000000	78.200993 
2903.000000	78.192044 
2902.000000	78.169624 
2901.000000	78.137029 
2900.000000	78.101103 
2899.000000	78.064700 
2898.000000	78.026721 
2897.000000	77.986828 
2896.000000	77.945499 
2895.000000	77.900578 
2894.000000	77.848320 
2893.000000	77.787851 
2892.000000	77.721135 
2891.000000	77.649244 
2890.000000	77.572684 
2889.000000	77.495258 
2888.000000	77.423079 
2887.000000	77.358158 
2886.000000	77.295802 
2885.000000	77.229571 
2884.000000	77.157119 
2883.000000	77.081384 
2882.000000	77.008527 
2881.000000	76.944499 
2880.000000	76.890616 
2879.000000	76.841780 
2878.000000	76.791405 
2877.000000	76.738390 
2876.000000	76.686885 
2875.000000	76.639390 
2874.000000	76.593450 
2873.000000	76.546154 
2872.000000	76.498687 
2871.000000	76.454269 
2870.000000	76.413132 
2869.000000	76.371456 
2868.000000	76.324775 
2867.000000	76.271483 
2866.000000	76.213622 
2865.000000	76.154988 
2864.000000	76.098370 
2863.000000	76.044296 
2862.000000	75.991852 
2861.000000	75.939737 
2860.000000	75.886823 
2859.000000	75.833835 
2858.000000	75.785452 
2857.000000	75.748619 
2856.000000	75.727157 
2855.000000	75.719422 
2854.000000	75.722202 
2853.000000	75.734272 
2852.000000	75.753904 
2851.000000	75.775519 
2850.000000	75.792607 
2849.000000	75.803626 
2848.000000	75.812488 
2847.000000	75.823386 
2846.000000	75.836559 
2845.000000	75.847935 
2844.000000	75.851033 
2843.000000	75.840805 
2842.000000	75.818178 
2841.000000	75.789799 
2840.000000	75.760953 
2839.000000	75.729775 
2838.000000	75.690791 
2837.000000	75.642596 
2836.000000	75.588667 
2835.000000	75.531451 
2834.000000	75.469355 
2833.000000	75.399948 
2832.000000	75.323273 
2831.000000	75.241297 
2830.000000	75.155978 
2829.000000	75.067849 
2828.000000	74.974716 
2827.000000	74.872353 
2826.000000	74.758935 
2825.000000	74.638548 
2824.000000	74.517606 
2823.000000	74.397344 
2822.000000	74.272017 
2821.000000	74.135308 
2820.000000	73.987578 
2819.000000	73.836860 
2818.000000	73.693626 
2817.000000	73.563515 
2816.000000	73.443596 
2815.000000	73.326520 
2814.000000	73.209876 
2813.000000	73.100370 
2812.000000	73.007178 
2811.000000	72.932915 
2810.000000	72.873380 
2809.000000	72.824426 
2808.000000	72.785530 
2807.000000	72.757380 
2806.000000	72.739845 
2805.000000	72.733012 
2804.000000	72.737372 
2803.000000	72.751775 
2802.000000	72.773052 
2801.000000	72.798617 
2800.000000	72.828242 
2799.000000	72.862702 
2798.000000	72.901472 
2797.000000	72.942049 
2796.000000	72.981512 
2795.000000	73.019685 
2794.000000	73.061114 
2793.000000	73.111789 
2792.000000	73.171811 
2791.000000	73.232699 
2790.000000	73.284787 
2789.000000	73.327153 
2788.000000	73.368140 
2787.000000	73.415922 
2786.000000	73.470299 
2785.000000	73.523867 
2784.000000	73.569620 
2783.000000	73.606783 
2782.000000	73.640124 
2781.000000	73.674336 
2780.000000	73.709387 
2779.000000	73.741271 
2778.000000	73.765828 
2777.000000	73.779934 
2776.000000	73.780129 
2775.000000	73.764287 
2774.000000	73.736154 
2773.000000	73.704765 
2772.000000	73.676464 
2771.000000	73.649315 
2770.000000	73.617500 
2769.000000	73.579078 
2768.000000	73.536946 
2767.000000	73.494285 
2766.000000	73.451916 
2765.000000	73.408384 
2764.000000	73.359453 
2763.000000	73.298705 
2762.000000	73.221974 
2761.000000	73.131027 
2760.000000	73.031039 
2759.000000	72.925517 
2758.000000	72.815362 
2757.000000	72.700607 
2756.000000	72.579772 
2755.000000	72.448975 
2754.000000	72.305132 
2753.000000	72.149420 
2752.000000	71.985018 
2751.000000	71.813018 
2750.000000	71.634126 
2749.000000	71.452836 
2748.000000	71.275056 
2747.000000	71.101296 
2746.000000	70.926691 
2745.000000	70.749392 
2744.000000	70.575815 
2743.000000	70.415381 
2742.000000	70.271658 
2741.000000	70.140004 
2740.000000	70.013040 
2739.000000	69.887668 
2738.000000	69.767258 
2737.000000	69.657516 
2736.000000	69.560425 
2735.000000	69.473110 
2734.000000	69.392627 
2733.000000	69.320058 
2732.000000	69.259029 
2731.000000	69.212220 
2730.000000	69.180953 
2729.000000	69.166240 
2728.000000	69.167711 
2727.000000	69.182371 
2726.000000	69.206564 
2725.000000	69.238846 
2724.000000	69.279689 
2723.000000	69.329303 
2722.000000	69.387166 
2721.000000	69.452636 
2720.000000	69.524360 
2719.000000	69.599875 
2718.000000	69.677293 
2717.000000	69.757033 
2716.000000	69.841422 
2715.000000	69.933709 
2714.000000	70.037667 
2713.000000	70.155650 
2712.000000	70.285556 
2711.000000	70.422077 
2710.000000	70.563390 
2709.000000	70.715356 
2708.000000	70.887335 
2707.000000	71.085014 
2706.000000	71.308184 
2705.000000	71.552508 
2704.000000	71.810690 
2703.000000	72.074312 
2702.000000	72.338859 
2701.000000	72.607099 
2700.000000	72.884580 
2699.000000	73.171329 
2698.000000	73.459920 
2697.000000	73.741730 
2696.000000	74.013411 
2695.000000	74.277455 
2694.000000	74.538547 
2693.000000	74.799773 
2692.000000	75.060406 
2691.000000	75.315991 
2690.000000	75.560947 
2689.000000	75.791910 
2688.000000	76.009089 
2687.000000	76.215014 
2686.000000	76.412074 
2685.000000	76.600624 
2684.000000	76.779485 
2683.000000	76.949157 
2682.000000	77.113984 
2681.000000	77.279008 
2680.000000	77.444192 
2679.000000	77.603873 
2678.000000	77.752793 
2677.000000	77.890720 
2676.000000	78.020453 
2675.000000	78.143986 
2674.000000	78.262349 
2673.000000	78.376607 
2672.000000	78.486491 
2671.000000	78.589760 
2670.000000	78.685140 
2669.000000	78.774385 
2668.000000	78.859288 
2667.000000	78.938175 
2666.000000	79.007495 
2665.000000	79.065257 
2664.000000	79.110532 
2663.000000	79.141164 
2662.000000	79.154944 
2661.000000	79.152414 
2660.000000	79.135933 
2659.000000	79.106021 
2658.000000	79.060059 
2657.000000	78.994043 
2656.000000	78.904820 
2655.000000	78.792475 
2654.000000	78.661975 
2653.000000	78.520298 
2652.000000	78.370044 
2651.000000	78.207949 
2650.000000	78.031355 
2649.000000	77.842908 
2648.000000	77.646337 
2647.000000	77.441483 
2646.000000	77.227668 
2645.000000	77.008880 
2644.000000	76.790479 
2643.000000	76.572555 
2642.000000	76.351214 
2641.000000	76.125098 
2640.000000	75.896363 
2639.000000	75.666952 
2638.000000	75.438672 
2637.000000	75.215430 
2636.000000	75.000153 
2635.000000	74.790159 
2634.000000	74.580257 
2633.000000	74.369909 
2632.000000	74.162927 
2631.000000	73.960887 
2630.000000	73.761628 
2629.000000	73.563684 
2628.000000	73.367005 
2627.000000	73.168774 
2626.000000	72.963308 
2625.000000	72.748019 
2624.000000	72.527026 
2623.000000	72.308058 
2622.000000	72.096841 
2621.000000	71.893150 
2620.000000	71.690346 
2619.000000	71.480855 
2618.000000	71.264521 
2617.000000	71.048977 
2616.000000	70.838953 
2615.000000	70.628714 
2614.000000	70.408861 
2613.000000	70.176826 
2612.000000	69.935744 
2611.000000	69.687116 
2610.000000	69.432030 
2609.000000	69.177714 
2608.000000	68.935037 
2607.000000	68.708952 
2606.000000	68.497200 
2605.000000	68.298924 
2604.000000	68.119220 
2603.000000	67.964341 
2602.000000	67.836880 
2601.000000	67.736604 
2600.000000	67.662449 
2599.000000	67.612802 
2598.000000	67.586297 
2597.000000	67.582730 
2596.000000	67.602046 
2595.000000	67.644095 
2594.000000	67.711194 
2593.000000	67.808288 
2592.000000	67.937174 
2591.000000	68.092195 
2590.000000	68.264577 
2589.000000	68.449221 
2588.000000	68.644594 
2587.000000	68.848830 
2586.000000	69.060526 
2585.000000	69.282159 
2584.000000	69.517884 
2583.000000	69.766931 
2582.000000	70.021705 
2581.000000	70.273150 
2580.000000	70.516938 
2579.000000	70.754812 
2578.000000	70.990903 
2577.000000	71.226531 
2576.000000	71.458710 
2575.000000	71.684645 
2574.000000	71.905886 
2573.000000	72.124135 
2572.000000	72.333797 
2571.000000	72.524753 
2570.000000	72.694460 
2569.000000	72.851828 
2568.000000	73.006027 
2567.000000	73.156339 
2566.000000	73.296476 
2565.000000	73.423624 
2564.000000	73.538427 
2563.000000	73.640612 
2562.000000	73.730626 
2561.000000	73.813112 
2560.000000	73.893808 
2559.000000	73.974649 
2558.000000	74.054277 
2557.000000	74.128755 
2556.000000	74.188340 
2555.000000	74.220536 
2554.000000	74.223967 
2553.000000	74.214583 
2552.000000	74.209246 
2551.000000	74.205660 
2550.000000	74.186990 
2549.000000	74.144297 
2548.000000	74.084763 
2547.000000	74.017637 
2546.000000	73.942634 
2545.000000	73.856891 
2544.000000	73.766619 
2543.000000	73.685787 
2542.000000	73.624960 
2541.000000	73.584050 
2540.000000	73.554682 
2539.000000	73.528069 
2538.000000	73.500918 
2537.000000	73.474156 
2536.000000	73.447501 
2535.000000	73.418871 
2534.000000	73.390116 
2533.000000	73.368747 
2532.000000	73.360315 
2531.000000	73.361759 
2530.000000	73.365512 
2529.000000	73.367579 
2528.000000	73.368215 
2527.000000	73.366964 
2526.000000	73.360370 
2525.000000	73.342983 
2524.000000	73.308914 
2523.000000	73.256039 
2522.000000	73.191778 
2521.000000	73.131597 
2520.000000	73.088569 
2519.000000	73.067055 
2518.000000	73.068206 
2517.000000	73.096046 
2516.000000	73.153648 
2515.000000	73.237729 
2514.000000	73.342294 
2513.000000	73.464745 
2512.000000	73.604219 
2511.000000	73.757200 
2510.000000	73.919836 
2509.000000	74.093028 
2508.000000	74.281689 
2507.000000	74.490304 
2506.000000	74.720689 
2505.000000	74.970206 
2504.000000	75.229235 
2503.000000	75.484054 
2502.000000	75.725647 
2501.000000	75.953521 
2500.000000	76.170243 
2499.000000	76.377595 
2498.000000	76.579803 
2497.000000	76.782536 
2496.000000	76.982926 
2495.000000	77.166629 
2494.000000	77.321811 
2493.000000	77.452034 
2492.000000	77.569387 
2491.000000	77.679758 
2490.000000	77.782064 
2489.000000	77.877363 
2488.000000	77.969256 
2487.000000	78.056833 
2486.000000	78.135403 
2485.000000	78.203879 
2484.000000	78.265218 
2483.000000	78.320976 
2482.000000	78.372023 
2481.000000	78.423272 
2480.000000	78.480786 
2479.000000	78.545069 
2478.000000	78.613849 
2477.000000	78.690532 
2476.000000	78.782604 
2475.000000	78.891511 
2474.000000	79.011034 
2473.000000	79.136512 
2472.000000	79.269287 
2471.000000	79.410392 
2470.000000	79.555616 
2469.000000	79.699601 
2468.000000	79.841186 
2467.000000	79.982477 
2466.000000	80.124984 
2465.000000	80.267796 
2464.000000	80.407692 
2463.000000	80.540753 
2462.000000	80.665484 
2461.000000	80.783961 
2460.000000	80.898848 
2459.000000	81.011237 
2458.000000	81.122851 
2457.000000	81.236698 
2456.000000	81.351898 
2455.000000	81.461163 
2454.000000	81.558534 
2453.000000	81.648081 
2452.000000	81.740582 
2451.000000	81.842902 
2450.000000	81.954248 
2449.000000	82.070448 
2448.000000	82.186958 
2447.000000	82.299027 
2446.000000	82.403411 
2445.000000	82.499519 
2444.000000	82.586733 
2443.000000	82.663700 
2442.000000	82.733415 
2441.000000	82.804145 
2440.000000	82.879416 
2439.000000	82.950770 
2438.000000	83.007762 
2437.000000	83.053394 
2436.000000	83.102892 
2435.000000	83.167812 
2434.000000	83.246797 
2433.000000	83.330462 
2432.000000	83.409629 
2431.000000	83.479731 
2430.000000	83.542704 
2429.000000	83.604560 
2428.000000	83.667884 
2427.000000	83.729234 
2426.000000	83.787671 
2425.000000	83.851354 
2424.000000	83.929398 
2423.000000	84.020849 
2422.000000	84.118681 
2421.000000	84.220981 
2420.000000	84.329758 
2419.000000	84.441473 
2418.000000	84.548386 
2417.000000	84.648744 
2416.000000	84.746910 
2415.000000	84.843400 
2414.000000	84.933512 
2413.000000	85.016560 
2412.000000	85.097718 
2411.000000	85.178668 
2410.000000	85.254088 
2409.000000	85.319880 
2408.000000	85.377764 
2407.000000	85.428819 
2406.000000	85.469562 
2405.000000	85.499185 
2404.000000	85.526360 
2403.000000	85.564539 
2402.000000	85.621965 
2401.000000	85.696994 
2400.000000	85.780372 
2399.000000	85.862040 
2398.000000	85.939136 
2397.000000	86.017436 
2396.000000	86.102223 
2395.000000	86.189092 
2394.000000	86.267654 
2393.000000	86.332862 
2392.000000	86.388047 
2391.000000	86.438280 
2390.000000	86.486674 
2389.000000	86.536840 
2388.000000	86.592647 
2387.000000	86.654411 
2386.000000	86.720241 
2385.000000	86.792067 
2384.000000	86.875697 
2383.000000	86.973607 
2382.000000	87.081644 
2381.000000	87.194152 
2380.000000	87.308202 
2379.000000	87.420937 
2378.000000	87.526878 
2377.000000	87.618730 
2376.000000	87.689124 
2375.000000	87.734711 
2374.000000	87.764091 
2373.000000	87.800233 
2372.000000	87.861450 
2371.000000	87.941302 
2370.000000	88.019872 
2369.000000	88.092136 
2368.000000	88.164749 
2367.000000	88.228932 
2366.000000	88.264652 
2365.000000	88.275431 
2364.000000	88.292692 
2363.000000	88.346771 
2362.000000	88.436817 
2361.000000	88.535708 
2360.000000	88.621561 
2359.000000	88.674248 
2358.000000	88.687805 
2357.000000	88.687520 
2356.000000	88.702402 
2355.000000	88.754639 
2354.000000	88.846665 
2353.000000	88.965001 
2352.000000	89.064850 
2351.000000	89.100365 
2350.000000	89.092823 
2349.000000	89.098674 
2348.000000	89.157413 
2347.000000	89.246360 
2346.000000	89.300416 
2345.000000	89.297728 
2344.000000	89.272208 
2343.000000	89.282879 
2342.000000	89.325735 
2341.000000	89.368388 
2340.000000	89.403424 
2339.000000	89.438443 
2338.000000	89.478622 
2337.000000	89.509084 
2336.000000	89.520163 
2335.000000	89.509597 
2334.000000	89.497055 
2333.000000	89.500352 
2332.000000	89.531000 
2331.000000	89.564318 
2330.000000	89.591118 
2329.000000	89.593984 
2328.000000	89.578278 
2327.000000	89.540208 
2326.000000	89.487852 
2325.000000	89.446599 
2324.000000	89.431851 
2323.000000	89.445087 
2322.000000	89.463654 
2321.000000	89.477200 
2320.000000	89.491162 
2319.000000	89.502803 
2318.000000	89.507139 
2317.000000	89.497976 
2316.000000	89.494697 
2315.000000	89.505564 
2314.000000	89.535639 
2313.000000	89.565761 
2312.000000	89.582508 
2311.000000	89.567217 
2310.000000	89.525682 
2309.000000	89.473388 
2308.000000	89.430768 
2307.000000	89.390050 
2306.000000	89.332731 
2305.000000	89.247206 
2304.000000	89.147191 
2303.000000	89.049229 
2302.000000	88.967970 
2301.000000	88.908843 
2300.000000	88.877141 
2299.000000	88.862733 
2298.000000	88.851672 
2297.000000	88.836024 
2296.000000	88.828667 
2295.000000	88.844302 
2294.000000	88.887022 
2293.000000	88.946320 
2292.000000	89.006600 
2291.000000	89.054490 
2290.000000	89.086703 
2289.000000	89.116106 
2288.000000	89.161722 
2287.000000	89.232065 
2286.000000	89.318166 
2285.000000	89.406856 
2284.000000	89.490313 
2283.000000	89.565891 
2282.000000	89.632440 
2281.000000	89.692501 
2280.000000	89.747741 
2279.000000	89.791489 
2278.000000	89.814247 
2277.000000	89.818914 
2276.000000	89.819557 
2275.000000	89.818990 
2274.000000	89.802117 
2273.000000	89.755987 
2272.000000	89.688663 
2271.000000	89.619715 
2270.000000	89.561769 
2269.000000	89.516899 
2268.000000	89.483016 
2267.000000	89.457355 
2266.000000	89.440441 
2265.000000	89.440915 
2264.000000	89.471935 
2263.000000	89.538572 
2262.000000	89.632676 
2261.000000	89.741093 
2260.000000	89.853448 
2259.000000	89.967209 
2258.000000	90.090797 
2257.000000	90.239749 
2256.000000	90.417653 
2255.000000	90.602137 
2254.000000	90.761254 
2253.000000	90.882541 
2252.000000	90.978139 
2251.000000	91.063765 
2250.000000	91.147874 
2249.000000	91.235861 
2248.000000	91.329415 
2247.000000	91.421084 
2246.000000	91.505046 
2245.000000	91.589403 
2244.000000	91.680842 
2243.000000	91.762490 
2242.000000	91.811491 
2241.000000	91.838599 
2240.000000	91.883708 
2239.000000	91.966340 
2238.000000	92.063961 
2237.000000	92.145118 
2236.000000	92.200042 
2235.000000	92.231663 
2234.000000	92.243135 
2233.000000	92.247779 
2232.000000	92.268085 
2231.000000	92.310285 
2230.000000	92.358584 
2229.000000	92.404913 
2228.000000	92.462897 
2227.000000	92.539076 
2226.000000	92.611678 
2225.000000	92.654499 
2224.000000	92.666791 
2223.000000	92.666661 
2222.000000	92.670614 
2221.000000	92.689329 
2220.000000	92.725117 
2219.000000	92.762968 
2218.000000	92.782408 
2217.000000	92.787026 
2216.000000	92.801949 
2215.000000	92.834144 
2214.000000	92.861120 
2213.000000	92.871104 
2212.000000	92.886153 
2211.000000	92.926417 
2210.000000	92.976605 
2209.000000	93.010501 
2208.000000	93.028153 
2207.000000	93.044306 
2206.000000	93.056203 
2205.000000	93.048819 
2204.000000	93.023687 
2203.000000	93.002164 
2202.000000	93.004378 
2201.000000	93.034929 
2200.000000	93.079773 
2199.000000	93.109848 
2198.000000	93.101271 
2197.000000	93.060532 
2196.000000	93.016226 
2195.000000	92.980899 
2194.000000	92.940109 
2193.000000	92.883861 
2192.000000	92.824866 
2191.000000	92.776393 
2190.000000	92.736645 
2189.000000	92.706612 
2188.000000	92.698525 
2187.000000	92.711760 
2186.000000	92.722934 
2185.000000	92.715267 
2184.000000	92.697417 
2183.000000	92.678955 
2182.000000	92.649525 
2181.000000	92.598510 
2180.000000	92.535213 
2179.000000	92.475592 
2178.000000	92.427766 
2177.000000	92.396591 
2176.000000	92.376960 
2175.000000	92.337252 
2174.000000	92.242553 
2173.000000	92.107553 
2172.000000	91.995884 
2171.000000	91.951621 
2170.000000	91.955831 
2169.000000	91.958862 
2168.000000	91.926687 
2167.000000	91.843147 
2166.000000	91.701370 
2165.000000	91.521085 
2164.000000	91.352295 
2163.000000	91.240976 
2162.000000	91.212231 
2161.000000	91.290687 
2160.000000	91.487621 
2159.000000	91.738734 
2158.000000	91.908166 
2157.000000	91.903975 
2156.000000	91.751655 
2155.000000	91.533406 
2154.000000	91.306644 
2153.000000	91.092984 
2152.000000	90.895815 
2151.000000	90.701735 
2150.000000	90.490343 
2149.000000	90.264329 
2148.000000	90.053954 
2147.000000	89.879442 
2146.000000	89.726882 
2145.000000	89.568841 
2144.000000	89.386856 
2143.000000	89.164743 
2142.000000	88.885628 
2141.000000	88.554716 
2140.000000	88.210127 
2139.000000	87.896387 
2138.000000	87.635707 
2137.000000	87.427902 
2136.000000	87.261792 
2135.000000	87.118305 
2134.000000	86.973849 
2133.000000	86.811096 
2132.000000	86.625780 
2131.000000	86.425119 
2130.000000	86.226264 
2129.000000	86.051508 
2128.000000	85.912712 
2127.000000	85.800749 
2126.000000	85.698869 
2125.000000	85.603995 
2124.000000	85.525955 
2123.000000	85.469322 
2122.000000	85.428092 
2121.000000	85.397853 
2120.000000	85.381686 
2119.000000	85.381874 
2118.000000	85.394961 
2117.000000	85.418237 
2116.000000	85.455016 
2115.000000	85.510724 
2114.000000	85.586783 
2113.000000	85.678252 
2112.000000	85.775400 
2111.000000	85.870662 
2110.000000	85.967223 
2109.000000	86.076204 
2108.000000	86.201232 
2107.000000	86.332196 
2106.000000	86.459740 
2105.000000	86.587396 
2104.000000	86.720866 
2103.000000	86.854746 
2102.000000	86.983283 
2101.000000	87.117154 
2100.000000	87.272894 
2099.000000	87.448087 
2098.000000	87.622292 
2097.000000	87.782097 
2096.000000	87.931501 
2095.000000	88.078288 
2094.000000	88.225519 
2093.000000	88.376858 
2092.000000	88.533994 
2091.000000	88.686215 
2090.000000	88.817448 
2089.000000	88.928268 
2088.000000	89.038851 
2087.000000	89.166125 
2086.000000	89.309286 
2085.000000	89.459825 
2084.000000	89.613004 
2083.000000	89.765316 
2082.000000	89.911994 
2081.000000	90.051641 
2080.000000	90.184804 
2079.000000	90.307777 
2078.000000	90.418836 
2077.000000	90.528382 
2076.000000	90.646644 
2075.000000	90.762201 
2074.000000	90.852805 
2073.000000	90.920201 
2072.000000	90.993516 
2071.000000	91.092224 
2070.000000	91.205709 
2069.000000	91.314679 
2068.000000	91.412553 
2067.000000	91.498477 
2066.000000	91.569460 
2065.000000	91.628457 
2064.000000	91.681850 
2063.000000	91.722151 
2062.000000	91.733499 
2061.000000	91.719723 
2060.000000	91.704346 
2059.000000	91.697316 
2058.000000	91.687395 
2057.000000	91.673495 
2056.000000	91.671836 
2055.000000	91.678955 
2054.000000	91.660849 
2053.000000	91.603123 
2052.000000	91.548647 
2051.000000	91.561320 
2050.000000	91.664139 
2049.000000	91.822788 
2048.000000	91.978674 
2047.000000	92.088034 
2046.000000	92.143031 
2045.000000	92.174528 
2044.000000	92.224385 
2043.000000	92.301242 
2042.000000	92.377837 
2041.000000	92.437356 
2040.000000	92.496259 
2039.000000	92.569141 
2038.000000	92.642663 
2037.000000	92.703566 
2036.000000	92.763992 
2035.000000	92.836691 
2034.000000	92.911401 
2033.000000	92.977371 
2032.000000	93.040448 
2031.000000	93.096885 
2030.000000	93.125278 
2029.000000	93.130239 
2028.000000	93.158303 
2027.000000	93.238314 
2026.000000	93.336300 
2025.000000	93.401023 
2024.000000	93.431283 
2023.000000	93.466470 
2022.000000	93.530751 
2021.000000	93.615654 
2020.000000	93.699808 
2019.000000	93.760114 
2018.000000	93.778052 
2017.000000	93.759674 
2016.000000	93.738372 
2015.000000	93.741535 
2014.000000	93.769420 
2013.000000	93.811373 
2012.000000	93.857406 
2011.000000	93.888259 
2010.000000	93.887240 
2009.000000	93.878397 
2008.000000	93.920304 
2007.000000	94.036534 
2006.000000	94.178901 
2005.000000	94.281352 
2004.000000	94.326080 
2003.000000	94.338729 
2002.000000	94.348296 
2001.000000	94.372753 
2000.000000	94.417518 
1999.000000	94.465352 
1998.000000	94.483730 
1997.000000	94.460446 
1996.000000	94.421073 
1995.000000	94.401728 
1994.000000	94.421436 
1993.000000	94.484535 
1992.000000	94.582062 
1991.000000	94.680118 
1990.000000	94.733753 
1989.000000	94.728062 
1988.000000	94.688070 
1987.000000	94.640538 
1986.000000	94.588957 
1985.000000	94.535066 
1984.000000	94.496231 
1983.000000	94.483540 
1982.000000	94.486191 
1981.000000	94.495945 
1980.000000	94.527916 
1979.000000	94.599320 
1978.000000	94.702814 
1977.000000	94.816469 
1976.000000	94.923376 
1975.000000	95.008970 
1974.000000	95.062523 
1973.000000	95.093624 
1972.000000	95.122977 
1971.000000	95.147757 
1970.000000	95.141403 
1969.000000	95.094075 
1968.000000	95.027664 
1967.000000	94.965473 
1966.000000	94.914737 
1965.000000	94.883415 
1964.000000	94.882632 
1963.000000	94.905746 
1962.000000	94.930094 
1961.000000	94.941453 
1960.000000	94.934398 
1959.000000	94.896233 
1958.000000	94.825568 
1957.000000	94.762195 
1956.000000	94.758184 
1955.000000	94.816602 
1954.000000	94.891343 
1953.000000	94.948635 
1952.000000	94.995026 
1951.000000	95.041683 
1950.000000	95.080955 
1949.000000	95.109259 
1948.000000	95.137945 
1947.000000	95.168210 
1946.000000	95.186063 
1945.000000	95.193889 
1944.000000	95.217019 
1943.000000	95.265239 
1942.000000	95.315277 
1941.000000	95.347760 
1940.000000	95.372403 
1939.000000	95.401987 
1938.000000	95.432460 
1937.000000	95.461010 
1936.000000	95.496912 
1935.000000	95.540061 
1934.000000	95.570966 
1933.000000	95.576262 
1932.000000	95.566901 
1931.000000	95.561554 
1930.000000	95.570490 
1929.000000	95.599765 
1928.000000	95.648816 
1927.000000	95.698832 
1926.000000	95.725428 
1925.000000	95.729261 
1924.000000	95.733400 
1923.000000	95.746616 
1922.000000	95.754084 
1921.000000	95.750374 
1920.000000	95.751211 
1919.000000	95.765347 
1918.000000	95.782181 
1917.000000	95.796709 
1916.000000	95.819162 
1915.000000	95.847977 
1914.000000	95.863878 
1913.000000	95.863131 
1912.000000	95.870891 
1911.000000	95.904928 
1910.000000	95.948110 
1909.000000	95.974585 
1908.000000	95.983725 
1907.000000	95.989297 
1906.000000	95.995015 
1905.000000	96.000499 
1904.000000	96.012865 
1903.000000	96.035243 
1902.000000	96.057303 
1901.000000	96.070002 
1900.000000	96.077168 
1899.000000	96.083898 
1898.000000	96.089777 
1897.000000	96.102360 
1896.000000	96.137271 
1895.000000	96.192516 
1894.000000	96.241574 
1893.000000	96.265828 
1892.000000	96.275832 
1891.000000	96.290193 
1890.000000	96.311930 
1889.000000	96.334971 
1888.000000	96.357735 
1887.000000	96.378021 
1886.000000	96.390025 
1885.000000	96.397842 
1884.000000	96.416028 
1883.000000	96.445564 
1882.000000	96.466012 
1881.000000	96.462150 
1880.000000	96.442510 
1879.000000	96.422067 
1878.000000	96.403895 
1877.000000	96.388372 
1876.000000	96.382826 
1875.000000	96.390379 
1874.000000	96.403980 
1873.000000	96.419444 
1872.000000	96.438484 
1871.000000	96.452420 
1870.000000	96.442575 
1869.000000	96.409398 
1868.000000	96.379864 
1867.000000	96.368607 
1866.000000	96.359876 
1865.000000	96.338992 
1864.000000	96.313735 
1863.000000	96.294923 
1862.000000	96.276761 
1861.000000	96.251231 
1860.000000	96.227703 
1859.000000	96.222216 
1858.000000	96.236551 
1857.000000	96.258722 
1856.000000	96.275121 
1855.000000	96.275592 
1854.000000	96.259284 
1853.000000	96.243026 
1852.000000	96.250054 
1851.000000	96.284615 
1850.000000	96.328869 
1849.000000	96.367215 
1848.000000	96.399096 
1847.000000	96.424566 
1846.000000	96.436155 
1845.000000	96.435234 
1844.000000	96.439874 
1843.000000	96.460463 
1842.000000	96.487589 
1841.000000	96.514617 
1840.000000	96.547618 
1839.000000	96.589693 
1838.000000	96.633231 
1837.000000	96.673518 
1836.000000	96.713818 
1835.000000	96.750723 
1834.000000	96.773211 
1833.000000	96.781968 
1832.000000	96.792043 
1831.000000	96.811975 
1830.000000	96.833713 
1829.000000	96.852899 
1828.000000	96.879356 
1827.000000	96.911921 
1826.000000	96.928965 
1825.000000	96.917746 
1824.000000	96.894299 
1823.000000	96.878816 
1822.000000	96.873551 
1821.000000	96.877407 
1820.000000	96.897318 
1819.000000	96.931656 
1818.000000	96.960461 
1817.000000	96.967448 
1816.000000	96.956875 
1815.000000	96.937192 
1814.000000	96.906174 
1813.000000	96.864892 
1812.000000	96.830030 
1811.000000	96.815384 
1810.000000	96.812989 
1809.000000	96.807906 
1808.000000	96.799263 
1807.000000	96.795749 
1806.000000	96.802536 
1805.000000	96.819541 
1804.000000	96.840603 
1803.000000	96.851067 
1802.000000	96.841909 
1801.000000	96.829302 
1800.000000	96.840340 
1799.000000	96.874084 
1798.000000	96.901670 
1797.000000	96.907384 
1796.000000	96.906297 
1795.000000	96.917088 
1794.000000	96.938960 
1793.000000	96.962373 
1792.000000	96.983771 
1791.000000	96.996852 
1790.000000	96.991967 
1789.000000	96.976676 
1788.000000	96.974212 
1787.000000	96.993920 
1786.000000	97.018775 
1785.000000	97.031935 
1784.000000	97.039626 
1783.000000	97.051605 
1782.000000	97.059226 
1781.000000	97.050369 
1780.000000	97.033064 
1779.000000	97.023176 
1778.000000	97.020326 
1777.000000	97.014270 
1776.000000	97.001594 
1775.000000	96.981841 
1774.000000	96.952017 
1773.000000	96.920831 
1772.000000	96.910765 
1771.000000	96.926957 
1770.000000	96.944203 
1769.000000	96.938831 
1768.000000	96.913351 
1767.000000	96.882385 
1766.000000	96.850695 
1765.000000	96.818559 
1764.000000	96.791455 
1763.000000	96.771560 
1762.000000	96.752230 
1761.000000	96.731919 
1760.000000	96.720547 
1759.000000	96.716239 
1758.000000	96.697508 
1757.000000	96.653872 
1756.000000	96.608059 
1755.000000	96.584554 
1754.000000	96.576401 
1753.000000	96.562726 
1752.000000	96.539944 
1751.000000	96.521199 
1750.000000	96.509669 
1749.000000	96.500213 
1748.000000	96.497656 
1747.000000	96.505775 
1746.000000	96.513753 
1745.000000	96.513316 
1744.000000	96.516156 
1743.000000	96.537021 
1742.000000	96.573097 
1741.000000	96.617613 
1740.000000	96.676125 
1739.000000	96.750345 
1738.000000	96.828367 
1737.000000	96.907719 
1736.000000	97.008139 
1735.000000	97.147861 
1734.000000	97.301902 
1733.000000	97.425524 
1732.000000	97.524461 
1731.000000	97.626111 
1730.000000	97.733802 
1729.000000	97.842151 
1728.000000	97.959804 
1727.000000	98.095344 
1726.000000	98.235233 
1725.000000	98.355567 
1724.000000	98.445997 
1723.000000	98.504778 
1722.000000	98.525580 
1721.000000	98.508163 
1720.000000	98.468258 
1719.000000	98.422051 
1718.000000	98.366479 
1717.000000	98.294196 
1716.000000	98.219101 
1715.000000	98.150577 
1714.000000	98.075491 
1713.000000	97.988539 
1712.000000	97.906941 
1711.000000	97.841984 
1710.000000	97.780108 
1709.000000	97.705626 
1708.000000	97.624441 
1707.000000	97.549434 
1706.000000	97.477553 
1705.000000	97.403625 
1704.000000	97.338066 
1703.000000	97.283216 
1702.000000	97.216122 
1701.000000	97.121616 
1700.000000	97.028314 
1699.000000	96.963627 
1698.000000	96.906601 
1697.000000	96.832369 
1696.000000	96.750301 
1695.000000	96.681008 
1694.000000	96.621002 
1693.000000	96.558651 
1692.000000	96.498113 
1691.000000	96.441534 
1690.000000	96.372695 
1689.000000	96.281297 
1688.000000	96.185982 
1687.000000	96.108130 
1686.000000	96.042231 
1685.000000	95.973915 
1684.000000	95.904200 
1683.000000	95.833933 
1682.000000	95.745740 
1681.000000	95.629434 
1680.000000	95.504000 
1679.000000	95.391296 
1678.000000	95.281631 
1677.000000	95.146372 
1676.000000	94.977093 
1675.000000	94.790926 
1674.000000	94.596919 
1673.000000	94.384902 
1672.000000	94.142985 
1671.000000	93.852213 
1670.000000	93.484001 
1669.000000	93.045708 
1668.000000	92.603069 
1667.000000	92.204763 
1666.000000	91.828525 
1665.000000	91.420792 
1664.000000	90.955995 
1663.000000	90.454356 
1662.000000	89.953389 
1661.000000	89.477325 
1660.000000	89.040472 
1659.000000	88.651782 
1658.000000	88.305499 
1657.000000	87.989689 
1656.000000	87.695538 
1655.000000	87.396428 
1654.000000	87.029306 
1653.000000	86.581200 
1652.000000	86.195892 
1651.000000	85.960200 
1650.000000	85.782677 
1649.000000	85.537300 
1648.000000	85.149509 
1647.000000	84.629394 
1646.000000	84.050231 
1645.000000	83.478553 
1644.000000	82.943883 
1643.000000	82.441981 
1642.000000	81.942636 
1641.000000	81.430703 
1640.000000	80.945322 
1639.000000	80.529729 
1638.000000	80.145166 
1637.000000	79.685980 
1636.000000	79.111330 
1635.000000	78.525360 
1634.000000	78.025729 
1633.000000	77.587327 
1632.000000	77.158271 
1631.000000	76.715062 
1630.000000	76.233220 
1629.000000	75.695597 
1628.000000	75.142765 
1627.000000	74.649352 
1626.000000	74.228774 
1625.000000	73.825335 
1624.000000	73.407112 
1623.000000	73.015679 
1622.000000	72.706796 
1621.000000	72.489509 
1620.000000	72.348632 
1619.000000	72.265879 
1618.000000	72.205642 
1617.000000	72.139554 
1616.000000	72.105144 
1615.000000	72.162178 
1614.000000	72.297999 
1613.000000	72.456809 
1612.000000	72.605995 
1611.000000	72.724938 
1610.000000	72.758752 
1609.000000	72.626959 
1608.000000	72.276263 
1607.000000	71.689917 
1606.000000	70.855488 
1605.000000	69.758879 
1604.000000	68.410315 
1603.000000	66.845482 
1602.000000	65.091012 
1601.000000	63.155176 
1600.000000	61.061759 
1599.000000	58.854206 
1598.000000	56.546763 
1597.000000	54.116282 
1596.000000	51.577927 
1595.000000	49.031152 
1594.000000	46.591002 
1593.000000	44.317759 
1592.000000	42.259200 
1591.000000	40.496005 
1590.000000	39.080634 
1589.000000	37.990187 
1588.000000	37.198047 
1587.000000	36.721885 
1586.000000	36.545900 
1585.000000	36.580312 
1584.000000	36.761792 
1583.000000	37.113283 
1582.000000	37.643710 
1581.000000	38.274539 
1580.000000	38.934509 
1579.000000	39.646959 
1578.000000	40.463490 
1577.000000	41.358665 
1576.000000	42.240263 
1575.000000	43.060259 
1574.000000	43.832257 
1573.000000	44.565817 
1572.000000	45.275057 
1571.000000	45.996886 
1570.000000	46.734021 
1569.000000	47.424971 
1568.000000	48.051039 
1567.000000	48.686685 
1566.000000	49.391270 
1565.000000	50.135921 
1564.000000	50.861563 
1563.000000	51.564732 
1562.000000	52.285479 
1561.000000	53.048010 
1560.000000	53.856458 
1559.000000	54.673480 
1558.000000	55.407152 
1557.000000	56.041811 
1556.000000	56.636092 
1555.000000	57.227994 
1554.000000	57.805417 
1553.000000	58.328910 
1552.000000	58.783655 
1551.000000	59.181722 
1550.000000	59.528643 
1549.000000	59.824947 
1548.000000	60.090277 
1547.000000	60.349972 
1546.000000	60.598077 
1545.000000	60.800990 
1544.000000	60.945818 
1543.000000	61.055104 
1542.000000	61.133747 
1541.000000	61.132914 
1540.000000	61.012140 
1539.000000	60.838843 
1538.000000	60.724340 
1537.000000	60.687591 
1536.000000	60.670917 
1535.000000	60.598299 
1534.000000	60.417723 
1533.000000	60.164089 
1532.000000	59.938536 
1531.000000	59.795349 
1530.000000	59.716283 
1529.000000	59.663280 
1528.000000	59.611410 
1527.000000	59.554693 
1526.000000	59.502506 
1525.000000	59.470348 
1524.000000	59.457973 
1523.000000	59.431867 
1522.000000	59.349020 
1521.000000	59.238375 
1520.000000	59.207476 
1519.000000	59.317576 
1518.000000	59.542797 
1517.000000	59.835538 
1516.000000	60.186393 
1515.000000	60.629790 
1514.000000	61.192184 
1513.000000	61.856709 
1512.000000	62.578380 
1511.000000	63.322425 
1510.000000	64.080278 
1509.000000	64.849043 
1508.000000	65.630024 
1507.000000	66.436220 
1506.000000	67.239613 
1505.000000	67.984376 
1504.000000	68.672184 
1503.000000	69.350315 
1502.000000	70.048736 
1501.000000	70.751143 
1500.000000	71.425079 
1499.000000	72.076225 
1498.000000	72.735650 
1497.000000	73.394828 
1496.000000	74.015944 
1495.000000	74.604205 
1494.000000	75.191820 
1493.000000	75.779888 
1492.000000	76.354573 
1491.000000	76.920159 
1490.000000	77.470577 
1489.000000	77.961744 
1488.000000	78.371527 
1487.000000	78.731435 
1486.000000	79.058111 
1485.000000	79.324026 
1484.000000	79.515540 
1483.000000	79.665328 
1482.000000	79.808223 
1481.000000	79.945346 
1480.000000	80.069665 
1479.000000	80.182313 
1478.000000	80.258281 
1477.000000	80.247188 
1476.000000	80.137860 
1475.000000	79.961520 
1474.000000	79.701418 
1473.000000	79.290497 
1472.000000	78.758443 
1471.000000	78.241234 
1470.000000	77.795029 
1469.000000	77.362529 
1468.000000	76.883158 
1467.000000	76.323667 
1466.000000	75.637091 
1465.000000	74.792242 
1464.000000	73.866134 
1463.000000	72.983751 
1462.000000	72.166812 
1461.000000	71.348807 
1460.000000	70.452668 
1459.000000	69.365255 
1458.000000	67.899274 
1457.000000	66.081733 
1456.000000	64.414345 
1455.000000	63.310674 
1454.000000	62.686397 
1453.000000	62.303842 
1452.000000	62.038103 
1451.000000	61.875342 
1450.000000	61.852558 
1449.000000	62.054743 
1448.000000	62.622704 
1447.000000	63.662024 
1446.000000	65.157247 
1445.000000	67.000542 
1444.000000	69.042914 
1443.000000	71.116716 
1442.000000	73.071616 
1441.000000	74.803535 
1440.000000	76.270741 
1439.000000	77.509433 
1438.000000	78.602998 
1437.000000	79.578985 
1436.000000	80.369666 
1435.000000	80.953577 
1434.000000	81.416251 
1433.000000	81.820322 
1432.000000	82.148699 
1431.000000	82.373832 
1430.000000	82.506004 
1429.000000	82.552311 
1428.000000	82.494510 
1427.000000	82.329422 
1426.000000	82.059149 
1425.000000	81.645498 
1424.000000	81.057758 
1423.000000	80.346713 
1422.000000	79.548787 
1421.000000	78.536183 
1420.000000	77.074298 
1419.000000	75.117607 
1418.000000	72.907053 
1417.000000	70.614358 
1416.000000	68.194266 
1415.000000	65.596419 
1414.000000	62.853042 
1413.000000	60.035481 
1412.000000	57.274101 
1411.000000	54.777077 
1410.000000	52.729824 
1409.000000	51.232007 
1408.000000	50.365404 
1407.000000	50.195239 
1406.000000	50.681433 
1405.000000	51.707039 
1404.000000	53.185487 
1403.000000	55.046469 
1402.000000	57.198138 
1401.000000	59.589554 
1400.000000	62.199204 
1399.000000	64.889222 
1398.000000	67.423217 
1397.000000	69.696921 
1396.000000	71.780805 
1395.000000	73.721700 
1394.000000	75.444150 
1393.000000	76.874021 
1392.000000	78.039603 
1391.000000	79.010226 
1390.000000	79.823011 
1389.000000	80.475708 
1388.000000	80.942708 
1387.000000	81.191878 
1386.000000	81.202880 
1385.000000	80.983145 
1384.000000	80.596789 
1383.000000	80.203715 
1382.000000	80.025042 
1381.000000	80.205408 
1380.000000	80.714144 
1379.000000	81.391661 
1378.000000	82.073292 
1377.000000	82.674762 
1376.000000	83.187395 
1375.000000	83.626235 
1374.000000	83.997210 
1373.000000	84.295821 
1372.000000	84.515716 
1371.000000	84.647739 
1370.000000	84.669180 
1369.000000	84.542836 
1368.000000	84.240777 
1367.000000	83.766643 
1366.000000	83.126960 
1365.000000	82.267128 
1364.000000	81.056625 
1363.000000	79.373109 
1362.000000	77.207294 
1361.000000	74.640756 
1360.000000	71.736514 
1359.000000	68.510180 
1358.000000	64.976723 
1357.000000	61.191141 
1356.000000	57.294275 
1355.000000	53.558229 
1354.000000	50.338314 
1353.000000	47.924038 
1352.000000	46.438574 
1351.000000	45.856804 
1350.000000	46.053056 
1349.000000	46.834474 
1348.000000	47.996252 
1347.000000	49.379150 
1346.000000	50.877979 
1345.000000	52.421988 
1344.000000	53.975872 
1343.000000	55.548861 
1342.000000	57.175999 
1341.000000	58.882345 
1340.000000	60.661784 
1339.000000	62.480076 
1338.000000	64.295493 
1337.000000	66.080196 
1336.000000	67.824427 
1335.000000	69.525876 
1334.000000	71.178874 
1333.000000	72.769983 
1332.000000	74.279548 
1331.000000	75.688142 
1330.000000	76.982363 
1329.000000	78.152586 
1328.000000	79.187869 
1327.000000	80.079500 
1326.000000	80.826449 
1325.000000	81.429541 
1324.000000	81.882483 
1323.000000	82.174847 
1322.000000	82.296279 
1321.000000	82.225150 
1320.000000	81.916917 
1319.000000	81.315428 
1318.000000	80.372993 
1317.000000	79.048014 
1316.000000	77.287208 
1315.000000	75.025052 
1314.000000	72.212440 
1313.000000	68.868598 
1312.000000	65.134573 
1311.000000	61.277700 
1310.000000	57.622878 
1309.000000	54.467354 
1308.000000	52.029728 
1307.000000	50.406162 
1306.000000	49.535887 
1305.000000	49.245155 
1304.000000	49.354226 
1303.000000	49.735014 
1302.000000	50.289973 
1301.000000	50.934930 
1300.000000	51.622265 
1299.000000	52.347023 
1298.000000	53.110931 
1297.000000	53.899428 
1296.000000	54.700065 
1295.000000	55.516524 
1294.000000	56.351369 
1293.000000	57.194724 
1292.000000	58.039940 
1291.000000	58.892438 
1290.000000	59.753620 
1289.000000	60.611624 
1288.000000	61.456683 
1287.000000	62.291990 
1286.000000	63.121554 
1285.000000	63.939640 
1284.000000	64.739469 
1283.000000	65.521733 
1282.000000	66.288088 
1281.000000	67.034986 
1280.000000	67.759303 
1279.000000	68.462082 
1278.000000	69.142518 
1277.000000	69.796597 
1276.000000	70.426085 
1275.000000	71.039989 
1274.000000	71.641579 
1273.000000	72.222369 
1272.000000	72.775144 
1271.000000	73.304316 
1270.000000	73.815124 
1269.000000	74.301007 
1268.000000	74.753290 
1267.000000	75.178051 
1266.000000	75.591216 
1265.000000	75.999270 
1264.000000	76.395876 
1263.000000	76.775756 
1262.000000	77.139977 
1261.000000	77.486979 
1260.000000	77.809616 
1259.000000	78.103403 
1258.000000	78.368398 
1257.000000	78.600431 
1256.000000	78.787662 
1255.000000	78.914521 
1254.000000	78.958160 
1253.000000	78.882376 
1252.000000	78.653633 
1251.000000	78.275545 
1250.000000	77.801359 
1249.000000	77.306438 
1248.000000	76.850485 
1247.000000	76.453580 
1246.000000	76.081750 
1245.000000	75.648900 
1244.000000	75.051570 
1243.000000	74.222000 
1242.000000	73.161665 
1241.000000	71.944191 
1240.000000	70.705844 
1239.000000	69.619592 
1238.000000	68.838904 
1237.000000	68.448675 
1236.000000	68.466479 
1235.000000	68.865089 
1234.000000	69.575815 
1233.000000	70.493406 
1232.000000	71.507805 
1231.000000	72.538726 
1230.000000	73.542327 
1229.000000	74.496385 
1228.000000	75.388487 
1227.000000	76.215444 
1226.000000	76.984099 
1225.000000	77.706600 
1224.000000	78.393529 
1223.000000	79.048128 
1222.000000	79.662717 
1221.000000	80.223299 
1220.000000	80.725330 
1219.000000	81.186004 
1218.000000	81.633889 
1217.000000	82.084277 
1216.000000	82.530762 
1215.000000	82.960418 
1214.000000	83.367002 
1213.000000	83.747272 
1212.000000	84.096999 
1211.000000	84.418738 
1210.000000	84.724823 
1209.000000	85.024748 
1208.000000	85.316709 
1207.000000	85.597387 
1206.000000	85.871173 
1205.000000	86.142751 
1204.000000	86.409869 
1203.000000	86.671738 
1202.000000	86.935537 
1201.000000	87.205003 
1200.000000	87.470362 
1199.000000	87.719909 
1198.000000	87.956265 
1197.000000	88.192572 
1196.000000	88.437716 
1195.000000	88.691841 
1194.000000	88.948897 
1193.000000	89.196453 
1192.000000	89.421589 
1191.000000	89.625975 
1190.000000	89.827432 
1189.000000	90.037984 
1188.000000	90.248883 
1187.000000	90.446012 
1186.000000	90.630267 
1185.000000	90.811998 
1184.000000	90.994807 
1183.000000	91.176878 
1182.000000	91.359427 
1181.000000	91.540866 
1180.000000	91.709873 
1179.000000	91.856743 
1178.000000	91.984994 
1177.000000	92.100234 
1176.000000	92.194915 
1175.000000	92.254731 
1174.000000	92.270183 
1173.000000	92.228433 
1172.000000	92.103739 
1171.000000	91.874148 
1170.000000	91.546792 
1169.000000	91.159864 
1168.000000	90.769528 
1167.000000	90.441264 
1166.000000	90.233251 
1165.000000	90.164919 
1164.000000	90.201782 
1163.000000	90.276444 
1162.000000	90.318481 
1161.000000	90.262770 
1160.000000	90.048431 
1159.000000	89.630537 
1158.000000	88.988060 
1157.000000	88.106761 
1156.000000	86.963790 
1155.000000	85.547934 
1154.000000	83.897316 
1153.000000	82.119186 
1152.000000	80.387950 
1151.000000	78.919384 
1150.000000	77.910017 
1149.000000	77.472281 
1148.000000	77.611692 
1147.000000	78.241098 
1146.000000	79.209923 
1145.000000	80.349489 
1144.000000	81.522185 
1143.000000	82.643850 
1142.000000	83.673380 
1141.000000	84.594104 
1140.000000	85.407529 
1139.000000	86.132407 
1138.000000	86.791030 
1137.000000	87.388782 
1136.000000	87.913121 
1135.000000	88.354848 
1134.000000	88.721014 
1133.000000	89.022416 
1132.000000	89.258878 
1131.000000	89.423767 
1130.000000	89.512427 
1129.000000	89.515743 
1128.000000	89.410768 
1127.000000	89.163451 
1126.000000	88.732782 
1125.000000	88.066056 
1124.000000	87.096713 
1123.000000	85.748457 
1122.000000	83.931070 
1121.000000	81.538483 
1120.000000	78.485775 
1119.000000	74.778765 
1118.000000	70.562498 
1117.000000	66.134894 
1116.000000	61.941851 
1115.000000	58.498023 
1114.000000	56.196987 
1113.000000	55.154175 
1112.000000	55.228360 
1111.000000	56.147379 
1110.000000	57.607940 
1109.000000	59.342946 
1108.000000	61.171566 
1107.000000	62.998690 
1106.000000	64.768003 
1105.000000	66.432894 
1104.000000	67.972623 
1103.000000	69.407490 
1102.000000	70.775266 
1101.000000	72.097099 
1100.000000	73.371566 
1099.000000	74.587405 
1098.000000	75.727993 
1097.000000	76.772067 
1096.000000	77.707222 
1095.000000	78.543454 
1094.000000	79.303450 
1093.000000	80.000539 
1092.000000	80.636581 
1091.000000	81.218261 
1090.000000	81.759631 
1089.000000	82.266899 
1088.000000	82.735584 
1087.000000	83.166252 
1086.000000	83.569476 
1085.000000	83.951724 
1084.000000	84.310567 
1083.000000	84.648423 
1082.000000	84.976662 
1081.000000	85.300365 
1080.000000	85.612430 
1079.000000	85.908078 
1078.000000	86.191774 
1077.000000	86.465590 
1076.000000	86.726958 
1075.000000	86.983965 
1074.000000	87.254526 
1073.000000	87.540566 
1072.000000	87.819226 
1071.000000	88.069908 
1070.000000	88.295130 
1069.000000	88.504803 
1068.000000	88.697323 
1067.000000	88.870351 
1066.000000	89.034513 
1065.000000	89.199735 
1064.000000	89.359934 
1063.000000	89.506968 
1062.000000	89.649734 
1061.000000	89.804630 
1060.000000	89.975196 
1059.000000	90.152869 
1058.000000	90.328410 
1057.000000	90.491224 
1056.000000	90.628261 
1055.000000	90.738654 
1054.000000	90.842737 
1053.000000	90.962601 
1052.000000	91.098231 
1051.000000	91.234782 
1050.000000	91.368599 
1049.000000	91.514119 
1048.000000	91.689885 
1047.000000	91.907919 
1046.000000	92.170655 
1045.000000	92.469270 
1044.000000	92.787701 
1043.000000	93.109594 
1042.000000	93.413895 
1041.000000	93.663437 
1040.000000	93.811245 
1039.000000	93.822053 
1038.000000	93.669698 
1037.000000	93.301569 
1036.000000	92.622152 
1035.000000	91.533302 
1034.000000	89.999878 
1033.000000	88.096995 
1032.000000	86.029539 
1031.000000	84.098955 
1030.000000	82.587545 
1029.000000	81.635603 
1028.000000	81.231111 
1027.000000	81.288774 
1026.000000	81.690618 
1025.000000	82.251467 
1024.000000	82.695195 
1023.000000	82.709768 
1022.000000	82.043788 
1021.000000	80.571826 
1020.000000	78.323912 
1019.000000	75.507293 
1018.000000	72.492944 
1017.000000	69.739487 
1016.000000	67.689823 
1015.000000	66.663723 
1014.000000	66.756034 
1013.000000	67.806148 
1012.000000	69.479949 
1011.000000	71.408332 
1010.000000	73.306950 
1009.000000	75.032915 
1008.000000	76.562720 
1007.000000	77.921715 
1006.000000	79.125260 
1005.000000	80.167758 
1004.000000	81.045708 
1003.000000	81.776068 
1002.000000	82.389159 
1001.000000	82.910569 
1000.000000	83.357516 
999.000000	 83.748142 
998.000000	 84.100434 
997.000000	 84.418791 
996.000000	 84.693145 
995.000000	 84.917048 
994.000000	 85.098342 
993.000000	 85.248163 
992.000000	 85.369846 
991.000000	 85.464839 
990.000000	 85.539796 
989.000000	 85.600536 
988.000000	 85.647025 
987.000000	 85.680741 
986.000000	 85.709021 
985.000000	 85.736183 
984.000000	 85.758969 
983.000000	 85.777428 
982.000000	 85.802117 
981.000000	 85.843577 
980.000000	 85.902172 
979.000000	 85.975194 
978.000000	 86.066700 
977.000000	 86.182342 
976.000000	 86.319583 
975.000000	 86.470579 
974.000000	 86.632002 
973.000000	 86.806646 
972.000000	 86.997688 
971.000000	 87.204586 
970.000000	 87.420874 
969.000000	 87.633196 
968.000000	 87.827270 
967.000000	 87.998692 
966.000000	 88.154460 
965.000000	 88.302650 
964.000000	 88.447040 
963.000000	 88.593570 
962.000000	 88.752443 
961.000000	 88.927570 
960.000000	 89.109907 
959.000000	 89.285533 
958.000000	 89.444135 
957.000000	 89.576848 
956.000000	 89.675942 
955.000000	 89.744599 
954.000000	 89.799773 
953.000000	 89.857259 
952.000000	 89.919123 
951.000000	 89.980792 
950.000000	 90.042612 
949.000000	 90.107960 
948.000000	 90.177075 
947.000000	 90.249080 
946.000000	 90.323629 
945.000000	 90.395904 
944.000000	 90.458813 
943.000000	 90.516188 
942.000000	 90.584006 
941.000000	 90.669952 
940.000000	 90.759804 
939.000000	 90.832774 
938.000000	 90.883692 
937.000000	 90.921878 
936.000000	 90.954095 
935.000000	 90.975439 
934.000000	 90.969677 
933.000000	 90.911018 
932.000000	 90.772325 
931.000000	 90.537890 
930.000000	 90.198155 
929.000000	 89.722838 
928.000000	 89.050697 
927.000000	 88.120991 
926.000000	 86.912039 
925.000000	 85.441257 
924.000000	 83.737006 
923.000000	 81.827099 
922.000000	 79.765014 
921.000000	 77.682198 
920.000000	 75.825134 
919.000000	 74.511647 
918.000000	 73.994743 
917.000000	 74.338594 
916.000000	 75.412039 
915.000000	 76.974002 
914.000000	 78.764159 
913.000000	 80.560912 
912.000000	 82.211774 
911.000000	 83.644051 
910.000000	 84.853021 
909.000000	 85.868879 
908.000000	 86.725455 
907.000000	 87.451643 
906.000000	 88.073691 
905.000000	 88.609902 
904.000000	 89.067577 
903.000000	 89.454664 
902.000000	 89.788602 
901.000000	 90.085453 
900.000000	 90.348963 
899.000000	 90.580483 
898.000000	 90.791516 
897.000000	 90.995796 
896.000000	 91.196688 
895.000000	 91.392864 
894.000000	 91.587832 
893.000000	 91.782753 
892.000000	 91.968372 
891.000000	 92.136409 
890.000000	 92.291949 
889.000000	 92.443395 
888.000000	 92.588360 
887.000000	 92.721224 
886.000000	 92.845475 
885.000000	 92.965031 
884.000000	 93.072276 
883.000000	 93.160004 
882.000000	 93.237330 
881.000000	 93.317447 
880.000000	 93.396917 
879.000000	 93.464652 
878.000000	 93.525041 
877.000000	 93.592298 
876.000000	 93.663653 
875.000000	 93.715207 
874.000000	 93.724237 
873.000000	 93.683430 
872.000000	 93.596932 
871.000000	 93.475461 
870.000000	 93.331710 
869.000000	 93.169446 
868.000000	 92.980547 
867.000000	 92.757390 
866.000000	 92.496167 
865.000000	 92.179060 
864.000000	 91.766010 
863.000000	 91.214963 
862.000000	 90.495172 
861.000000	 89.563038 
860.000000	 88.333194 
859.000000	 86.686687 
858.000000	 84.498779 
857.000000	 81.654677 
856.000000	 78.074789 
855.000000	 73.778698 
854.000000	 68.957464 
853.000000	 64.009352 
852.000000	 59.521150 
851.000000	 56.149472 
850.000000	 54.378192 
849.000000	 54.291708 
848.000000	 55.554806 
847.000000	 57.605518 
846.000000	 59.912266 
845.000000	 62.145515 
844.000000	 64.194570 
843.000000	 66.074907 
842.000000	 67.831743 
841.000000	 69.498996 
840.000000	 71.094378 
839.000000	 72.614244 
838.000000	 74.030539 
837.000000	 75.308740 
836.000000	 76.437205 
835.000000	 77.437782 
834.000000	 78.346122 
833.000000	 79.183595 
832.000000	 79.951444 
831.000000	 80.649651 
830.000000	 81.291159 
829.000000	 81.890409 
828.000000	 82.445682 
827.000000	 82.945859 
826.000000	 83.393006 
825.000000	 83.806204 
824.000000	 84.203517 
823.000000	 84.592085 
822.000000	 84.973411 
821.000000	 85.343162 
820.000000	 85.686697 
819.000000	 85.989432 
818.000000	 86.252936 
817.000000	 86.490019 
816.000000	 86.705536 
815.000000	 86.895514 
814.000000	 87.065546 
813.000000	 87.234825 
812.000000	 87.416940 
811.000000	 87.608723 
810.000000	 87.803464 
809.000000	 88.003604 
808.000000	 88.212235 
807.000000	 88.420727 
806.000000	 88.614346 
805.000000	 88.786965 
804.000000	 88.945393 
803.000000	 89.101766 
802.000000	 89.260845 
801.000000	 89.405080 
800.000000	 89.489236 
799.000000	 89.464967 
798.000000	 89.329392 
797.000000	 89.151820 
796.000000	 89.042339 
795.000000	 89.081742 
794.000000	 89.268629 
793.000000	 89.526100 
792.000000	 89.759879 
791.000000	 89.916389 
790.000000	 89.996008 
789.000000	 90.023024 
788.000000	 90.011951 
787.000000	 89.960865 
786.000000	 89.863381 
785.000000	 89.715360 
784.000000	 89.509646 
783.000000	 89.225684 
782.000000	 88.819068 
781.000000	 88.219422 
780.000000	 87.349359 
779.000000	 86.159415 
778.000000	 84.652661 
777.000000	 82.885695 
776.000000	 80.956600 
775.000000	 78.978161 
774.000000	 77.029792 
773.000000	 75.134912 
772.000000	 73.325051 
771.000000	 71.746156 
770.000000	 70.672734 
769.000000	 70.380445 
768.000000	 70.986498 
767.000000	 72.388285 
766.000000	 74.323480 
765.000000	 76.483040 
764.000000	 78.599985 
763.000000	 80.494989 
762.000000	 82.095184 
761.000000	 83.417716 
760.000000	 84.513636 
759.000000	 85.420088 
758.000000	 86.163826 
757.000000	 86.785366 
756.000000	 87.329927 
755.000000	 87.815764 
754.000000	 88.233067 
753.000000	 88.579908 
752.000000	 88.885235 
751.000000	 89.188461 
750.000000	 89.504160 
749.000000	 89.814499 
748.000000	 90.093601 
747.000000	 90.334384 
746.000000	 90.552863 
745.000000	 90.769898 
744.000000	 90.989612 
743.000000	 91.193977 
742.000000	 91.358207 
741.000000	 91.474565 
740.000000	 91.564252 
739.000000	 91.664385 
738.000000	 91.797564 
737.000000	 91.951810 
736.000000	 92.094391 
735.000000	 92.207966 
734.000000	 92.308674 
733.000000	 92.425045 
732.000000	 92.563391 
731.000000	 92.699324 
730.000000	 92.802165 
729.000000	 92.864817 
728.000000	 92.913799 
727.000000	 92.990452 
726.000000	 93.113483 
725.000000	 93.256900 
724.000000	 93.371754 
723.000000	 93.432815 
722.000000	 93.458242 
721.000000	 93.484743 
720.000000	 93.531266 
719.000000	 93.587335 
718.000000	 93.629334 
717.000000	 93.640186 
716.000000	 93.617986 
715.000000	 93.577203 
714.000000	 93.538673 
713.000000	 93.512900 
712.000000	 93.500697 
711.000000	 93.509363 
710.000000	 93.550593 
709.000000	 93.614179 
708.000000	 93.661220 
707.000000	 93.660148 
706.000000	 93.619516 
705.000000	 93.574563 
704.000000	 93.552330 
703.000000	 93.559776 
702.000000	 93.594656 
701.000000	 93.649454 
700.000000	 93.707919 
699.000000	 93.756203 
698.000000	 93.795207 
697.000000	 93.833568 
696.000000	 93.875731 
695.000000	 93.923002 
694.000000	 93.978342 
693.000000	 94.035041 
692.000000	 94.069358 
691.000000	 94.066828 
690.000000	 94.051641 
689.000000	 94.074261 
688.000000	 94.166069 
687.000000	 94.310402 
686.000000	 94.454440 
685.000000	 94.540382 
684.000000	 94.543277 
683.000000	 94.499970 
682.000000	 94.484752 
681.000000	 94.533407 
680.000000	 94.602840 
679.000000	 94.629150 
678.000000	 94.608278 
677.000000	 94.585018 
676.000000	 94.579031 
675.000000	 94.566226 
674.000000	 94.524692 
673.000000	 94.465467 
672.000000	 94.395438 
671.000000	 94.291105 
670.000000	 94.112786 
669.000000	 93.882205 
668.000000	 93.695634 
667.000000	 93.601949 
666.000000	 93.588157 
665.000000	 93.568123 
664.000000	 93.449174 
663.000000	 93.216799 
662.000000	 92.890856 
661.000000	 92.475011 
660.000000	 91.939769 
659.000000	 91.263299 
658.000000	 90.461685 
657.000000	 89.522681 
656.000000	 88.425374 
655.000000	 87.070488 
654.000000	 85.458335 
653.000000	 83.345511 
652.000000	 80.738680 
651.000000	 77.891468 
650.000000	 74.774234 

