PE IR                   SPECTRUM    ASCII       PEDS        1.60        
  -1
~SP.SP
18/04/18
12:30:15.00
18/04/18
12:30:15.00
Claudia

650.000000
16









SPECTRUM 100,CPU32 MAIN 00.02.8200 12-DECEMBER-2006 10:00:00
MIR TGS
MIR
OPTKBR
78890
0.200000

4.000000
STRONG
RATIO
SPECTRUM
MAGNITUDE
UNIVERSAL ATR
DOUBLE

COMBINED


0


#HDR
-1
-1
#GR
CM-1
%T
0.00002384185791015625
0.0
4000.000000
-1.000000
3351
8
98.570984
28.910799
#DATA
4000.000000	98.334007 
3999.000000	98.330237 
3998.000000	98.329317 
3997.000000	98.334368 
3996.000000	98.344301 
3995.000000	98.355201 
3994.000000	98.369354 
3993.000000	98.374262 
3992.000000	98.374752 
3991.000000	98.370468 
3990.000000	98.361804 
3989.000000	98.351028 
3988.000000	98.342030 
3987.000000	98.338154 
3986.000000	98.339581 
3985.000000	98.342838 
3984.000000	98.343719 
3983.000000	98.341123 
3982.000000	98.337608 
3981.000000	98.336302 
3980.000000	98.338040 
3979.000000	98.341817 
3978.000000	98.346830 
3977.000000	98.353005 
3976.000000	98.359933 
3975.000000	98.366219 
3974.000000	98.370057 
3973.000000	98.370322 
3972.000000	98.367506 
3971.000000	98.363890 
3970.000000	98.362218 
3969.000000	98.363580 
3968.000000	98.366932 
3967.000000	98.370845 
3966.000000	98.375097 
3965.000000	98.380158 
3964.000000	98.385750 
3963.000000	98.390724 
3962.000000	98.394226 
3961.000000	98.396499 
3960.000000	98.398622 
3959.000000	98.401834 
3958.000000	98.406656 
3957.000000	98.412191 
3956.000000	98.416626 
3955.000000	98.418777 
3954.000000	98.418934 
3953.000000	98.418088 
3952.000000	98.416933 
3951.000000	98.415878 
3950.000000	98.415235 
3949.000000	98.414940 
3948.000000	98.414579 
3947.000000	98.414156 
3946.000000	98.414458 
3945.000000	98.416386 
3944.000000	98.420022 
3943.000000	98.424344 
3942.000000	98.427995 
3941.000000	98.430333 
3940.000000	98.431625 
3939.000000	98.432573 
3938.000000	98.433590 
3937.000000	98.434167 
3936.000000	98.433382 
3935.000000	98.431230 
3934.000000	98.428987 
3933.000000	98.427709 
3932.000000	98.426935 
3931.000000	98.425615 
3930.000000	98.423806 
3929.000000	98.422557 
3928.000000	98.422475 
3927.000000	98.423070 
3926.000000	98.423255 
3925.000000	98.421694 
3924.000000	98.417287 
3923.000000	98.410420 
3922.000000	98.403232 
3921.000000	98.398065 
3920.000000	98.395384 
3919.000000	98.393267 
3918.000000	98.389342 
3917.000000	98.383416 
3916.000000	98.378129 
3915.000000	98.376901 
3914.000000	98.381203 
3913.000000	98.389308 
3912.000000	98.397260 
3911.000000	98.401806 
3910.000000	98.402749 
3909.000000	98.402940 
3908.000000	98.406131 
3907.000000	98.414457 
3906.000000	98.426461 
3905.000000	98.436720 
3904.000000	98.439102 
3903.000000	98.432819 
3902.000000	98.423969 
3901.000000	98.419970 
3900.000000	98.423735 
3899.000000	98.432907 
3898.000000	98.443427 
3897.000000	98.452552 
3896.000000	98.458933 
3895.000000	98.461834 
3894.000000	98.460901 
3893.000000	98.456363 
3892.000000	98.449504 
3891.000000	98.442961 
3890.000000	98.439464 
3889.000000	98.439363 
3888.000000	98.440871 
3887.000000	98.442929 
3886.000000	98.445765 
3885.000000	98.448613 
3884.000000	98.449439 
3883.000000	98.447484 
3882.000000	98.444828 
3881.000000	98.444971 
3880.000000	98.449633 
3879.000000	98.457154 
3878.000000	98.463844 
3877.000000	98.466542 
3876.000000	98.465635 
3875.000000	98.465138 
3874.000000	98.468207 
3873.000000	98.473233 
3872.000000	98.475979 
3871.000000	98.474662 
3870.000000	98.471867 
3869.000000	98.471323 
3868.000000	98.473669 
3867.000000	98.476687 
3866.000000	98.478980 
3865.000000	98.480766 
3864.000000	98.481166 
3863.000000	98.478128 
3862.000000	98.471177 
3861.000000	98.462689 
3860.000000	98.456763 
3859.000000	98.457264 
3858.000000	98.465420 
3857.000000	98.478364 
3856.000000	98.490175 
3855.000000	98.496505 
3854.000000	98.496263 
3853.000000	98.488680 
3852.000000	98.476275 
3851.000000	98.464380 
3850.000000	98.455355 
3849.000000	98.449638 
3848.000000	98.446970 
3847.000000	98.447234 
3846.000000	98.450764 
3845.000000	98.457599 
3844.000000	98.466890 
3843.000000	98.477597 
3842.000000	98.488789 
3841.000000	98.499447 
3840.000000	98.507886 
3839.000000	98.511714 
3838.000000	98.509349 
3837.000000	98.501875 
3836.000000	98.492346 
3835.000000	98.483503 
3834.000000	98.476568 
3833.000000	98.472118 
3832.000000	98.471069 
3831.000000	98.473809 
3830.000000	98.478538 
3829.000000	98.481494 
3828.000000	98.480358 
3827.000000	98.477608 
3826.000000	98.478436 
3825.000000	98.484589 
3824.000000	98.491906 
3823.000000	98.494998 
3822.000000	98.493103 
3821.000000	98.490042 
3820.000000	98.489732 
3819.000000	98.492692 
3818.000000	98.495434 
3817.000000	98.494997 
3816.000000	98.492517 
3815.000000	98.490682 
3814.000000	98.489895 
3813.000000	98.488722 
3812.000000	98.486394 
3811.000000	98.483215 
3810.000000	98.479158 
3809.000000	98.473722 
3808.000000	98.468025 
3807.000000	98.465709 
3806.000000	98.469625 
3805.000000	98.478301 
3804.000000	98.486597 
3803.000000	98.490182 
3802.000000	98.489054 
3801.000000	98.486650 
3800.000000	98.486105 
3799.000000	98.487311 
3798.000000	98.487710 
3797.000000	98.485432 
3796.000000	98.480843 
3795.000000	98.475890 
3794.000000	98.472507 
3793.000000	98.471896 
3792.000000	98.474570 
3791.000000	98.479863 
3790.000000	98.485423 
3789.000000	98.488227 
3788.000000	98.487005 
3787.000000	98.483771 
3786.000000	98.482549 
3785.000000	98.485581 
3784.000000	98.490682 
3783.000000	98.492701 
3782.000000	98.487931 
3781.000000	98.477541 
3780.000000	98.467107 
3779.000000	98.462306 
3778.000000	98.464798 
3777.000000	98.472163 
3776.000000	98.480690 
3775.000000	98.487955 
3774.000000	98.492942 
3773.000000	98.495215 
3772.000000	98.495164 
3771.000000	98.494387 
3770.000000	98.494030 
3769.000000	98.493361 
3768.000000	98.491422 
3767.000000	98.489123 
3766.000000	98.488919 
3765.000000	98.491855 
3764.000000	98.495445 
3763.000000	98.495895 
3762.000000	98.492472 
3761.000000	98.488556 
3760.000000	98.487078 
3759.000000	98.486349 
3758.000000	98.482984 
3757.000000	98.477515 
3756.000000	98.474205 
3755.000000	98.476833 
3754.000000	98.485738 
3753.000000	98.497629 
3752.000000	98.507275 
3751.000000	98.511021 
3750.000000	98.511122 
3749.000000	98.512955 
3748.000000	98.516030 
3747.000000	98.513165 
3746.000000	98.498582 
3745.000000	98.476342 
3744.000000	98.458506 
3743.000000	98.451580 
3742.000000	98.452043 
3741.000000	98.455258 
3740.000000	98.460038 
3739.000000	98.466079 
3738.000000	98.472255 
3737.000000	98.477443 
3736.000000	98.480945 
3735.000000	98.481690 
3734.000000	98.478522 
3733.000000	98.470910 
3732.000000	98.458790 
3731.000000	98.443239 
3730.000000	98.426948 
3729.000000	98.413776 
3728.000000	98.407842 
3727.000000	98.411118 
3726.000000	98.420390 
3725.000000	98.428974 
3724.000000	98.432899 
3723.000000	98.433665 
3722.000000	98.434937 
3721.000000	98.438945 
3720.000000	98.445792 
3719.000000	98.454735 
3718.000000	98.465193 
3717.000000	98.475718 
3716.000000	98.483508 
3715.000000	98.485984 
3714.000000	98.483425 
3713.000000	98.480065 
3712.000000	98.479314 
3711.000000	98.479516 
3710.000000	98.477116 
3709.000000	98.472222 
3708.000000	98.467600 
3707.000000	98.464776 
3706.000000	98.462949 
3705.000000	98.460640 
3704.000000	98.458724 
3703.000000	98.460456 
3702.000000	98.468384 
3701.000000	98.481055 
3700.000000	98.493960 
3699.000000	98.501994 
3698.000000	98.502623 
3697.000000	98.497577 
3696.000000	98.491719 
3695.000000	98.489950 
3694.000000	98.495190 
3693.000000	98.508758 
3692.000000	98.529700 
3691.000000	98.553208 
3690.000000	98.569640 
3689.000000	98.570984 
3688.000000	98.559266 
3687.000000	98.543920 
3686.000000	98.532021 
3685.000000	98.525445 
3684.000000	98.523142 
3683.000000	98.523200 
3682.000000	98.525165 
3681.000000	98.530153 
3680.000000	98.539033 
3679.000000	98.549534 
3678.000000	98.557503 
3677.000000	98.561780 
3676.000000	98.564832 
3675.000000	98.567386 
3674.000000	98.568175 
3673.000000	98.565723 
3672.000000	98.559559 
3671.000000	98.553833 
3670.000000	98.553298 
3669.000000	98.556668 
3668.000000	98.559701 
3667.000000	98.560089 
3666.000000	98.557727 
3665.000000	98.553986 
3664.000000	98.549951 
3663.000000	98.545415 
3662.000000	98.540105 
3661.000000	98.535432 
3660.000000	98.534000 
3659.000000	98.537134 
3658.000000	98.543631 
3657.000000	98.550866 
3656.000000	98.557008 
3655.000000	98.561691 
3654.000000	98.564105 
3653.000000	98.562462 
3652.000000	98.557069 
3651.000000	98.552497 
3650.000000	98.552920 
3649.000000	98.556026 
3648.000000	98.557535 
3647.000000	98.557221 
3646.000000	98.556198 
3645.000000	98.553688 
3644.000000	98.547818 
3643.000000	98.538090 
3642.000000	98.526500 
3641.000000	98.516018 
3640.000000	98.508615 
3639.000000	98.504632 
3638.000000	98.503234 
3637.000000	98.502989 
3636.000000	98.502818 
3635.000000	98.503006 
3634.000000	98.504642 
3633.000000	98.507481 
3632.000000	98.509299 
3631.000000	98.508126 
3630.000000	98.504807 
3629.000000	98.500691 
3628.000000	98.495285 
3627.000000	98.489383 
3626.000000	98.484235 
3625.000000	98.480446 
3624.000000	98.478920 
3623.000000	98.480543 
3622.000000	98.485903 
3621.000000	98.495468 
3620.000000	98.508223 
3619.000000	98.520736 
3618.000000	98.530242 
3617.000000	98.536664 
3616.000000	98.540271 
3615.000000	98.540720 
3614.000000	98.538177 
3613.000000	98.533743 
3612.000000	98.528389 
3611.000000	98.522049 
3610.000000	98.514618 
3609.000000	98.508258 
3608.000000	98.505883 
3607.000000	98.507220 
3606.000000	98.508705 
3605.000000	98.506892 
3604.000000	98.501662 
3603.000000	98.496370 
3602.000000	98.495821 
3601.000000	98.503046 
3600.000000	98.516732 
3599.000000	98.531520 
3598.000000	98.541365 
3597.000000	98.543253 
3596.000000	98.538376 
3595.000000	98.530584 
3594.000000	98.522932 
3593.000000	98.516728 
3592.000000	98.512770 
3591.000000	98.512957 
3590.000000	98.520002 
3589.000000	98.534943 
3588.000000	98.552865 
3587.000000	98.564666 
3586.000000	98.566225 
3585.000000	98.560842 
3584.000000	98.553111 
3583.000000	98.545056 
3582.000000	98.537776 
3581.000000	98.532873 
3580.000000	98.531398 
3579.000000	98.532279 
3578.000000	98.533599 
3577.000000	98.535396 
3576.000000	98.539010 
3575.000000	98.543814 
3574.000000	98.546067 
3573.000000	98.542992 
3572.000000	98.536431 
3571.000000	98.531612 
3570.000000	98.532537 
3569.000000	98.539445 
3568.000000	98.548817 
3567.000000	98.555710 
3566.000000	98.557961 
3565.000000	98.557237 
3564.000000	98.554707 
3563.000000	98.549172 
3562.000000	98.540179 
3561.000000	98.531099 
3560.000000	98.527642 
3559.000000	98.532398 
3558.000000	98.541796 
3557.000000	98.549209 
3556.000000	98.550591 
3555.000000	98.546717 
3554.000000	98.541230 
3553.000000	98.537459 
3552.000000	98.536965 
3551.000000	98.539607 
3550.000000	98.543817 
3549.000000	98.547032 
3548.000000	98.546867 
3547.000000	98.542590 
3546.000000	98.536288 
3545.000000	98.532313 
3544.000000	98.534021 
3543.000000	98.540156 
3542.000000	98.544953 
3541.000000	98.543074 
3540.000000	98.534814 
3539.000000	98.526080 
3538.000000	98.522724 
3537.000000	98.524976 
3536.000000	98.527652 
3535.000000	98.525949 
3534.000000	98.520274 
3533.000000	98.515525 
3532.000000	98.516180 
3531.000000	98.522265 
3530.000000	98.529303 
3529.000000	98.531942 
3528.000000	98.527783 
3527.000000	98.518454 
3526.000000	98.507984 
3525.000000	98.500600 
3524.000000	98.499111 
3523.000000	98.503775 
3522.000000	98.512255 
3521.000000	98.520946 
3520.000000	98.526828 
3519.000000	98.528641 
3518.000000	98.527019 
3517.000000	98.523878 
3516.000000	98.521557 
3515.000000	98.522211 
3514.000000	98.527000 
3513.000000	98.534974 
3512.000000	98.542634 
3511.000000	98.545511 
3510.000000	98.541378 
3509.000000	98.532182 
3508.000000	98.522450 
3507.000000	98.515885 
3506.000000	98.513707 
3505.000000	98.515055 
3504.000000	98.517681 
3503.000000	98.518918 
3502.000000	98.517546 
3501.000000	98.514589 
3500.000000	98.511425 
3499.000000	98.507778 
3498.000000	98.502680 
3497.000000	98.497063 
3496.000000	98.493955 
3495.000000	98.495564 
3494.000000	98.501027 
3493.000000	98.507323 
3492.000000	98.511823 
3491.000000	98.513745 
3490.000000	98.514084 
3489.000000	98.514679 
3488.000000	98.516864 
3487.000000	98.520677 
3486.000000	98.525411 
3485.000000	98.530504 
3484.000000	98.535276 
3483.000000	98.538476 
3482.000000	98.539322 
3481.000000	98.538866 
3480.000000	98.538876 
3479.000000	98.539093 
3478.000000	98.536911 
3477.000000	98.530397 
3476.000000	98.520777 
3475.000000	98.511618 
3474.000000	98.506091 
3473.000000	98.505159 
3472.000000	98.507529 
3471.000000	98.510784 
3470.000000	98.512945 
3469.000000	98.513287 
3468.000000	98.511820 
3467.000000	98.508793 
3466.000000	98.505455 
3465.000000	98.504448 
3464.000000	98.507860 
3463.000000	98.514797 
3462.000000	98.521917 
3461.000000	98.526407 
3460.000000	98.527546 
3459.000000	98.526203 
3458.000000	98.524534 
3457.000000	98.525618 
3456.000000	98.531013 
3455.000000	98.538183 
3454.000000	98.542427 
3453.000000	98.542346 
3452.000000	98.541425 
3451.000000	98.543290 
3450.000000	98.546866 
3449.000000	98.547755 
3448.000000	98.543664 
3447.000000	98.537297 
3446.000000	98.533951 
3445.000000	98.536676 
3444.000000	98.543609 
3443.000000	98.549479 
3442.000000	98.549853 
3441.000000	98.544268 
3440.000000	98.535351 
3439.000000	98.525960 
3438.000000	98.518084 
3437.000000	98.513223 
3436.000000	98.511668 
3435.000000	98.511579 
3434.000000	98.510805 
3433.000000	98.509823 
3432.000000	98.510813 
3431.000000	98.513589 
3430.000000	98.514844 
3429.000000	98.512351 
3428.000000	98.507713 
3427.000000	98.503483 
3426.000000	98.499526 
3425.000000	98.494287 
3424.000000	98.488547 
3423.000000	98.485784 
3422.000000	98.488459 
3421.000000	98.494767 
3420.000000	98.499487 
3419.000000	98.498332 
3418.000000	98.492145 
3417.000000	98.486731 
3416.000000	98.487357 
3415.000000	98.493216 
3414.000000	98.498516 
3413.000000	98.499205 
3412.000000	98.496776 
3411.000000	98.494726 
3410.000000	98.493733 
3409.000000	98.492230 
3408.000000	98.490123 
3407.000000	98.489467 
3406.000000	98.491785 
3405.000000	98.496487 
3404.000000	98.501917 
3403.000000	98.506624 
3402.000000	98.509488 
3401.000000	98.509745 
3400.000000	98.507279 
3399.000000	98.502593 
3398.000000	98.496486 
3397.000000	98.489924 
3396.000000	98.484018 
3395.000000	98.479839 
3394.000000	98.478273 
3393.000000	98.479582 
3392.000000	98.482434 
3391.000000	98.483779 
3390.000000	98.480997 
3389.000000	98.474563 
3388.000000	98.468036 
3387.000000	98.465454 
3386.000000	98.469089 
3385.000000	98.478492 
3384.000000	98.489844 
3383.000000	98.496621 
3382.000000	98.493689 
3381.000000	98.482099 
3380.000000	98.468668 
3379.000000	98.460127 
3378.000000	98.458376 
3377.000000	98.461189 
3376.000000	98.465159 
3375.000000	98.466998 
3374.000000	98.464390 
3373.000000	98.457964 
3372.000000	98.451769 
3371.000000	98.449987 
3370.000000	98.452974 
3369.000000	98.457003 
3368.000000	98.457562 
3367.000000	98.452807 
3366.000000	98.444919 
3365.000000	98.438712 
3364.000000	98.437875 
3363.000000	98.441728 
3362.000000	98.446045 
3361.000000	98.447226 
3360.000000	98.444785 
3359.000000	98.439957 
3358.000000	98.433655 
3357.000000	98.426709 
3356.000000	98.420703 
3355.000000	98.417216 
3354.000000	98.416642 
3353.000000	98.418256 
3352.000000	98.420633 
3351.000000	98.421597 
3350.000000	98.418922 
3349.000000	98.412048 
3348.000000	98.402825 
3347.000000	98.394224 
3346.000000	98.388631 
3345.000000	98.387001 
3344.000000	98.388305 
3343.000000	98.389585 
3342.000000	98.387714 
3341.000000	98.381560 
3340.000000	98.371954 
3339.000000	98.359996 
3338.000000	98.346655 
3337.000000	98.333542 
3336.000000	98.322197 
3335.000000	98.312579 
3334.000000	98.304066 
3333.000000	98.297899 
3332.000000	98.296453 
3331.000000	98.299554 
3330.000000	98.303431 
3329.000000	98.304009 
3328.000000	98.299752 
3327.000000	98.291189 
3326.000000	98.279982 
3325.000000	98.269115 
3324.000000	98.261371 
3323.000000	98.255986 
3322.000000	98.248582 
3321.000000	98.236113 
3320.000000	98.220676 
3319.000000	98.207144 
3318.000000	98.197875 
3317.000000	98.190588 
3316.000000	98.180350 
3315.000000	98.163040 
3314.000000	98.138386 
3313.000000	98.110697 
3312.000000	98.085685 
3311.000000	98.065922 
3310.000000	98.050095 
3309.000000	98.036177 
3308.000000	98.022928 
3307.000000	98.007913 
3306.000000	97.986999 
3305.000000	97.957825 
3304.000000	97.922359 
3303.000000	97.884746 
3302.000000	97.847986 
3301.000000	97.813552 
3300.000000	97.781993 
3299.000000	97.751940 
3298.000000	97.720066 
3297.000000	97.684395 
3296.000000	97.647166 
3295.000000	97.612890 
3294.000000	97.583841 
3293.000000	97.558377 
3292.000000	97.532989 
3291.000000	97.505152 
3290.000000	97.474803 
3289.000000	97.443972 
3288.000000	97.414748 
3287.000000	97.387545 
3286.000000	97.361925 
3285.000000	97.338486 
3284.000000	97.317921 
3283.000000	97.298188 
3282.000000	97.275306 
3281.000000	97.248385 
3280.000000	97.222159 
3279.000000	97.202851 
3278.000000	97.192473 
3277.000000	97.187942 
3276.000000	97.184227 
3275.000000	97.176979 
3274.000000	97.163300 
3273.000000	97.141982 
3272.000000	97.113531 
3271.000000	97.079910 
3270.000000	97.044478 
3269.000000	97.011332 
3268.000000	96.982874 
3267.000000	96.957865 
3266.000000	96.933478 
3265.000000	96.909171 
3264.000000	96.886568 
3263.000000	96.865597 
3262.000000	96.843684 
3261.000000	96.819614 
3260.000000	96.795323 
3259.000000	96.772201 
3258.000000	96.748070 
3257.000000	96.719990 
3256.000000	96.688272 
3255.000000	96.655474 
3254.000000	96.622882 
3253.000000	96.590276 
3252.000000	96.558068 
3251.000000	96.527048 
3250.000000	96.495975 
3249.000000	96.461649 
3248.000000	96.422249 
3247.000000	96.379791 
3246.000000	96.338683 
3245.000000	96.301903 
3244.000000	96.268571 
3243.000000	96.235204 
3242.000000	96.199168 
3241.000000	96.160417 
3240.000000	96.120028 
3239.000000	96.078501 
3238.000000	96.036541 
3237.000000	95.996101 
3236.000000	95.958668 
3235.000000	95.923100 
3234.000000	95.886905 
3233.000000	95.848841 
3232.000000	95.808346 
3231.000000	95.763663 
3230.000000	95.713616 
3229.000000	95.660945 
3228.000000	95.610735 
3227.000000	95.565136 
3226.000000	95.522256 
3225.000000	95.480222 
3224.000000	95.439008 
3223.000000	95.397734 
3222.000000	95.353789 
3221.000000	95.306358 
3220.000000	95.258353 
3219.000000	95.213142 
3218.000000	95.171198 
3217.000000	95.130876 
3216.000000	95.090393 
3215.000000	95.048143 
3214.000000	95.003356 
3213.000000	94.957460 
3212.000000	94.912849 
3211.000000	94.869669 
3210.000000	94.825939 
3209.000000	94.781089 
3208.000000	94.736516 
3207.000000	94.692025 
3206.000000	94.644957 
3205.000000	94.593957 
3204.000000	94.540372 
3203.000000	94.484549 
3202.000000	94.424293 
3201.000000	94.359349 
3200.000000	94.294374 
3199.000000	94.234252 
3198.000000	94.177991 
3197.000000	94.119495 
3196.000000	94.053001 
3195.000000	93.976244 
3194.000000	93.890642 
3193.000000	93.800964 
3192.000000	93.713149 
3191.000000	93.629738 
3190.000000	93.547883 
3189.000000	93.463099 
3188.000000	93.373569 
3187.000000	93.279620 
3186.000000	93.181345 
3185.000000	93.079332 
3184.000000	92.976522 
3183.000000	92.876542 
3182.000000	92.780080 
3181.000000	92.683980 
3180.000000	92.583514 
3179.000000	92.475212 
3178.000000	92.359129 
3177.000000	92.239513 
3176.000000	92.121774 
3175.000000	92.007311 
3174.000000	91.892234 
3173.000000	91.772172 
3172.000000	91.647283 
3171.000000	91.521763 
3170.000000	91.399959 
3169.000000	91.284232 
3168.000000	91.175086 
3167.000000	91.071329 
3166.000000	90.970398 
3165.000000	90.869668 
3164.000000	90.767418 
3163.000000	90.662380 
3162.000000	90.553354 
3161.000000	90.439937 
3160.000000	90.323058 
3159.000000	90.204476 
3158.000000	90.086184 
3157.000000	89.969629 
3156.000000	89.853889 
3155.000000	89.734693 
3154.000000	89.607074 
3153.000000	89.469625 
3152.000000	89.325162 
3151.000000	89.177440 
3150.000000	89.028792 
3149.000000	88.880510 
3148.000000	88.732969 
3147.000000	88.584723 
3146.000000	88.433563 
3145.000000	88.279626 
3144.000000	88.126431 
3143.000000	87.978225 
3142.000000	87.836704 
3141.000000	87.699410 
3140.000000	87.559807 
3139.000000	87.410035 
3138.000000	87.246279 
3137.000000	87.071700 
3136.000000	86.892633 
3135.000000	86.712942 
3134.000000	86.533988 
3133.000000	86.357686 
3132.000000	86.184747 
3131.000000	86.010174 
3130.000000	85.825561 
3129.000000	85.627595 
3128.000000	85.420887 
3127.000000	85.211181 
3126.000000	84.999125 
3125.000000	84.782052 
3124.000000	84.557978 
3123.000000	84.324974 
3122.000000	84.079439 
3121.000000	83.818417 
3120.000000	83.542642 
3119.000000	83.254977 
3118.000000	82.956140 
3117.000000	82.643184 
3116.000000	82.312083 
3115.000000	81.962089 
3114.000000	81.598747 
3113.000000	81.231980 
3112.000000	80.868678 
3111.000000	80.506753 
3110.000000	80.138405 
3109.000000	79.759184 
3108.000000	79.371604 
3107.000000	78.980455 
3106.000000	78.588343 
3105.000000	78.196922 
3104.000000	77.809039 
3103.000000	77.427355 
3102.000000	77.052538 
3101.000000	76.683984 
3100.000000	76.320728 
3099.000000	75.960979 
3098.000000	75.602866 
3097.000000	75.246752 
3096.000000	74.895405 
3095.000000	74.551411 
3094.000000	74.215925 
3093.000000	73.889762 
3092.000000	73.573215 
3091.000000	73.264471 
3090.000000	72.960861 
3089.000000	72.662645 
3088.000000	72.373421 
3087.000000	72.095888 
3086.000000	71.828907 
3085.000000	71.569500 
3084.000000	71.316091 
3083.000000	71.069178 
3082.000000	70.830346 
3081.000000	70.601088 
3080.000000	70.381406 
3079.000000	70.169629 
3078.000000	69.964960 
3077.000000	69.769874 
3076.000000	69.588355 
3075.000000	69.422119 
3074.000000	69.270133 
3073.000000	69.131055 
3072.000000	69.004019 
3071.000000	68.887546 
3070.000000	68.779873 
3069.000000	68.680171 
3068.000000	68.587691 
3067.000000	68.500494 
3066.000000	68.417381 
3065.000000	68.340577 
3064.000000	68.274057 
3063.000000	68.219485 
3062.000000	68.176012 
3061.000000	68.143368 
3060.000000	68.122588 
3059.000000	68.113858 
3058.000000	68.116050 
3057.000000	68.128259 
3056.000000	68.149806 
3055.000000	68.179338 
3054.000000	68.216306 
3053.000000	68.262610 
3052.000000	68.319650 
3051.000000	68.383620 
3050.000000	68.446696 
3049.000000	68.503718 
3048.000000	68.555873 
3047.000000	68.607258 
3046.000000	68.659739 
3045.000000	68.711495 
3044.000000	68.758593 
3043.000000	68.797378 
3042.000000	68.826782 
3041.000000	68.848970 
3040.000000	68.866906 
3039.000000	68.881212 
3038.000000	68.889948 
3037.000000	68.890739 
3036.000000	68.882262 
3035.000000	68.864872 
3034.000000	68.841285 
3033.000000	68.815541 
3032.000000	68.789570 
3031.000000	68.761830 
3030.000000	68.731163 
3029.000000	68.700719 
3028.000000	68.675523 
3027.000000	68.656889 
3026.000000	68.641540 
3025.000000	68.625919 
3024.000000	68.609180 
3023.000000	68.592193 
3022.000000	68.575868 
3021.000000	68.560768 
3020.000000	68.546787 
3019.000000	68.533036 
3018.000000	68.519062 
3017.000000	68.505734 
3016.000000	68.493890 
3015.000000	68.482849 
3014.000000	68.471274 
3013.000000	68.458475 
3012.000000	68.443891 
3011.000000	68.426801 
3010.000000	68.407773 
3009.000000	68.388318 
3008.000000	68.366823 
3007.000000	68.335716 
3006.000000	68.284216 
3005.000000	68.203321 
3004.000000	68.089535 
3003.000000	67.950286 
3002.000000	67.811476 
3001.000000	67.716493 
3000.000000	67.707287 
2999.000000	67.798090 
2998.000000	67.963116 
2997.000000	68.146825 
2996.000000	68.283257 
2995.000000	68.310418 
2994.000000	68.179946 
2993.000000	67.870466 
2992.000000	67.405370 
2991.000000	66.860259 
2990.000000	66.345019 
2989.000000	65.961283 
2988.000000	65.761352 
2987.000000	65.739110 
2986.000000	65.854329 
2985.000000	66.062712 
2984.000000	66.327111 
2983.000000	66.615478 
2982.000000	66.901551 
2981.000000	67.169749 
2980.000000	67.415819 
2979.000000	67.642437 
2978.000000	67.856310 
2977.000000	68.067023 
2976.000000	68.284211 
2975.000000	68.514970 
2974.000000	68.765220 
2973.000000	69.041156 
2972.000000	69.345551 
2971.000000	69.672842 
2970.000000	70.009956 
2969.000000	70.341576 
2968.000000	70.653761 
2967.000000	70.936369 
2966.000000	71.186677 
2965.000000	71.410612 
2964.000000	71.617323 
2963.000000	71.812138 
2962.000000	71.995144 
2961.000000	72.163437 
2960.000000	72.310713 
2959.000000	72.426016 
2958.000000	72.497045 
2957.000000	72.515687 
2956.000000	72.479457 
2955.000000	72.389946 
2954.000000	72.253248 
2953.000000	72.080518 
2952.000000	71.884282 
2951.000000	71.673834 
2950.000000	71.455776 
2949.000000	71.236592 
2948.000000	71.020934 
2947.000000	70.808496 
2946.000000	70.596386 
2945.000000	70.384663 
2944.000000	70.177226 
2943.000000	69.978450 
2942.000000	69.791832 
2941.000000	69.621117 
2940.000000	69.470026 
2939.000000	69.341557 
2938.000000	69.239474 
2937.000000	69.168234 
2936.000000	69.128554 
2935.000000	69.115197 
2934.000000	69.122849 
2933.000000	69.152182 
2932.000000	69.206598 
2931.000000	69.285064 
2930.000000	69.382764 
2929.000000	69.497099 
2928.000000	69.627897 
2927.000000	69.772093 
2926.000000	69.923437 
2925.000000	70.078359 
2924.000000	70.238311 
2923.000000	70.405505 
2922.000000	70.579564 
2921.000000	70.758839 
2920.000000	70.942214 
2919.000000	71.129013 
2918.000000	71.319151 
2917.000000	71.513195 
2916.000000	71.710281 
2915.000000	71.906492 
2914.000000	72.097482 
2913.000000	72.282066 
2912.000000	72.461588 
2911.000000	72.637017 
2910.000000	72.808984 
2909.000000	72.979005 
2908.000000	73.147206 
2907.000000	73.309444 
2906.000000	73.459911 
2905.000000	73.596978 
2904.000000	73.724246 
2903.000000	73.846003 
2902.000000	73.963258 
2901.000000	74.073462 
2900.000000	74.171785 
2899.000000	74.254249 
2898.000000	74.321811 
2897.000000	74.380682 
2896.000000	74.436350 
2895.000000	74.488413 
2894.000000	74.533505 
2893.000000	74.571349 
2892.000000	74.604491 
2891.000000	74.633469 
2890.000000	74.656182 
2889.000000	74.671671 
2888.000000	74.681102 
2887.000000	74.685303 
2886.000000	74.684709 
2885.000000	74.681964 
2884.000000	74.681920 
2883.000000	74.688949 
2882.000000	74.706280 
2881.000000	74.736661 
2880.000000	74.780344 
2879.000000	74.832585 
2878.000000	74.886304 
2877.000000	74.937643 
2876.000000	74.987168 
2875.000000	75.036691 
2874.000000	75.087627 
2873.000000	75.141263 
2872.000000	75.196973 
2871.000000	75.250202 
2870.000000	75.295579 
2869.000000	75.332484 
2868.000000	75.365189 
2867.000000	75.397685 
2866.000000	75.430800 
2865.000000	75.463844 
2864.000000	75.495825 
2863.000000	75.524929 
2862.000000	75.549682 
2861.000000	75.571015 
2860.000000	75.591104 
2859.000000	75.610787 
2858.000000	75.630668 
2857.000000	75.653822 
2856.000000	75.683987 
2855.000000	75.721117 
2854.000000	75.761689 
2853.000000	75.803401 
2852.000000	75.846894 
2851.000000	75.893021 
2850.000000	75.941205 
2849.000000	75.990789 
2848.000000	76.041666 
2847.000000	76.093364 
2846.000000	76.145381 
2845.000000	76.198163 
2844.000000	76.251725 
2843.000000	76.303548 
2842.000000	76.349717 
2841.000000	76.387852 
2840.000000	76.417392 
2839.000000	76.437927 
2838.000000	76.449017 
2837.000000	76.450601 
2836.000000	76.441506 
2835.000000	76.418720 
2834.000000	76.380305 
2833.000000	76.327643 
2832.000000	76.262546 
2831.000000	76.183955 
2830.000000	76.090549 
2829.000000	75.985037 
2828.000000	75.872258 
2827.000000	75.753915 
2826.000000	75.628837 
2825.000000	75.497806 
2824.000000	75.364622 
2823.000000	75.232554 
2822.000000	75.102854 
2821.000000	74.976549 
2820.000000	74.854747 
2819.000000	74.737485 
2818.000000	74.625138 
2817.000000	74.520549 
2816.000000	74.426896 
2815.000000	74.343849 
2814.000000	74.268618 
2813.000000	74.200401 
2812.000000	74.141283 
2811.000000	74.093605 
2810.000000	74.059367 
2809.000000	74.041398 
2808.000000	74.041688 
2807.000000	74.058576 
2806.000000	74.088108 
2805.000000	74.127611 
2804.000000	74.175416 
2803.000000	74.227984 
2802.000000	74.280451 
2801.000000	74.329550 
2800.000000	74.373159 
2799.000000	74.407524 
2798.000000	74.427900 
2797.000000	74.431475 
2796.000000	74.417341 
2795.000000	74.384850 
2794.000000	74.335364 
2793.000000	74.274533 
2792.000000	74.208896 
2791.000000	74.140530 
2790.000000	74.068480 
2789.000000	73.995009 
2788.000000	73.926473 
2787.000000	73.867838 
2786.000000	73.819895 
2785.000000	73.782203 
2784.000000	73.755480 
2783.000000	73.740782 
2782.000000	73.739373 
2781.000000	73.753618 
2780.000000	73.784844 
2779.000000	73.829935 
2778.000000	73.883026 
2777.000000	73.941223 
2776.000000	74.006173 
2775.000000	74.079719 
2774.000000	74.160551 
2773.000000	74.245441 
2772.000000	74.331348 
2771.000000	74.416036 
2770.000000	74.498884 
2769.000000	74.581397 
2768.000000	74.664875 
2767.000000	74.747725 
2766.000000	74.826948 
2765.000000	74.901505 
2764.000000	74.971529 
2763.000000	75.034858 
2762.000000	75.087478 
2761.000000	75.127511 
2760.000000	75.156032 
2759.000000	75.174059 
2758.000000	75.181572 
2757.000000	75.179595 
2756.000000	75.170402 
2755.000000	75.155399 
2754.000000	75.135317 
2753.000000	75.112449 
2752.000000	75.089933 
2751.000000	75.068546 
2750.000000	75.046632 
2749.000000	75.022909 
2748.000000	74.996691 
2747.000000	74.965574 
2746.000000	74.926076 
2745.000000	74.876814 
2744.000000	74.818424 
2743.000000	74.750533 
2742.000000	74.672127 
2741.000000	74.585070 
2740.000000	74.493614 
2739.000000	74.399292 
2738.000000	74.299441 
2737.000000	74.192249 
2736.000000	74.081064 
2735.000000	73.972519 
2734.000000	73.872611 
2733.000000	73.786008 
2732.000000	73.717506 
2731.000000	73.672588 
2730.000000	73.656717 
2729.000000	73.673808 
2728.000000	73.724415 
2727.000000	73.805816 
2726.000000	73.915079 
2725.000000	74.051397 
2724.000000	74.214091 
2723.000000	74.399389 
2722.000000	74.601338 
2721.000000	74.815534 
2720.000000	75.040067 
2719.000000	75.273320 
2718.000000	75.513012 
2717.000000	75.757393 
2716.000000	76.005612 
2715.000000	76.256930 
2714.000000	76.511221 
2713.000000	76.770084 
2712.000000	77.035822 
2711.000000	77.309292 
2710.000000	77.589778 
2709.000000	77.876092 
2708.000000	78.165924 
2707.000000	78.454722 
2706.000000	78.737378 
2705.000000	79.011247 
2704.000000	79.276482 
2703.000000	79.534238 
2702.000000	79.786224 
2701.000000	80.034915 
2700.000000	80.281576 
2699.000000	80.524057 
2698.000000	80.758463 
2697.000000	80.983034 
2696.000000	81.199098 
2695.000000	81.409000 
2694.000000	81.614949 
2693.000000	81.819086 
2692.000000	82.022343 
2691.000000	82.223589 
2690.000000	82.421753 
2689.000000	82.618165 
2688.000000	82.814820 
2687.000000	83.011365 
2686.000000	83.206213 
2685.000000	83.399511 
2684.000000	83.591922 
2683.000000	83.780946 
2682.000000	83.961651 
2681.000000	84.131151 
2680.000000	84.289546 
2679.000000	84.436394 
2678.000000	84.569054 
2677.000000	84.684750 
2676.000000	84.781507 
2675.000000	84.856507 
2674.000000	84.906056 
2673.000000	84.928102 
2672.000000	84.923268 
2671.000000	84.893436 
2670.000000	84.840759 
2669.000000	84.767293 
2668.000000	84.673595 
2667.000000	84.558891 
2666.000000	84.425138 
2665.000000	84.279665 
2664.000000	84.130772 
2663.000000	83.982122 
2662.000000	83.834877 
2661.000000	83.693826 
2660.000000	83.566572 
2659.000000	83.456938 
2658.000000	83.363675 
2657.000000	83.285778 
2656.000000	83.224379 
2655.000000	83.178682 
2654.000000	83.144506 
2653.000000	83.118439 
2652.000000	83.099809 
2651.000000	83.087268 
2650.000000	83.076879 
2649.000000	83.065158 
2648.000000	83.050938 
2647.000000	83.032677 
2646.000000	83.006322 
2645.000000	82.967012 
2644.000000	82.910902 
2643.000000	82.835177 
2642.000000	82.738698 
2641.000000	82.622394 
2640.000000	82.485950 
2639.000000	82.324659 
2638.000000	82.133571 
2637.000000	81.914947 
2636.000000	81.677479 
2635.000000	81.427779 
2634.000000	81.166950 
2633.000000	80.896220 
2632.000000	80.621436 
2631.000000	80.350273 
2630.000000	80.088281 
2629.000000	79.838463 
2628.000000	79.601290 
2627.000000	79.374303 
2626.000000	79.154967 
2625.000000	78.944418 
2624.000000	78.745526 
2623.000000	78.557694 
2622.000000	78.377410 
2621.000000	78.203490 
2620.000000	78.037229 
2619.000000	77.877396 
2618.000000	77.720043 
2617.000000	77.564383 
2616.000000	77.414360 
2615.000000	77.272707 
2614.000000	77.136739 
2613.000000	77.001038 
2612.000000	76.861379 
2611.000000	76.715783 
2610.000000	76.565484 
2609.000000	76.415994 
2608.000000	76.274465 
2607.000000	76.145297 
2606.000000	76.030208 
2605.000000	75.931387 
2604.000000	75.851021 
2603.000000	75.788343 
2602.000000	75.740852 
2601.000000	75.708130 
2600.000000	75.691011 
2599.000000	75.687639 
2598.000000	75.694472 
2597.000000	75.711526 
2596.000000	75.743525 
2595.000000	75.796032 
2594.000000	75.873365 
2593.000000	75.979720 
2592.000000	76.119092 
2591.000000	76.294290 
2590.000000	76.508224 
2589.000000	76.764314 
2588.000000	77.061953 
2587.000000	77.392751 
2586.000000	77.745111 
2585.000000	78.111974 
2584.000000	78.490559 
2583.000000	78.875131 
2582.000000	79.254343 
2581.000000	79.616839 
2580.000000	79.957277 
2579.000000	80.276790 
2578.000000	80.579572 
2577.000000	80.868562 
2576.000000	81.142266 
2575.000000	81.396393 
2574.000000	81.630043 
2573.000000	81.848106 
2572.000000	82.054957 
2571.000000	82.248517 
2570.000000	82.424489 
2569.000000	82.584372 
2568.000000	82.735011 
2567.000000	82.881995 
2566.000000	83.027639 
2565.000000	83.173269 
2564.000000	83.318437 
2563.000000	83.459658 
2562.000000	83.595107 
2561.000000	83.729117 
2560.000000	83.867150 
2559.000000	84.008447 
2558.000000	84.149329 
2557.000000	84.291537 
2556.000000	84.440416 
2555.000000	84.595948 
2554.000000	84.752373 
2553.000000	84.905904 
2552.000000	85.055848 
2551.000000	85.198500 
2550.000000	85.327250 
2549.000000	85.439537 
2548.000000	85.537438 
2547.000000	85.621057 
2546.000000	85.687736 
2545.000000	85.738067 
2544.000000	85.776053 
2543.000000	85.802975 
2542.000000	85.817714 
2541.000000	85.823203 
2540.000000	85.825212 
2539.000000	85.824144 
2538.000000	85.815338 
2537.000000	85.798296 
2536.000000	85.778062 
2535.000000	85.756494 
2534.000000	85.730254 
2533.000000	85.699304 
2532.000000	85.669486 
2531.000000	85.643830 
2530.000000	85.618055 
2529.000000	85.587146 
2528.000000	85.549808 
2527.000000	85.504262 
2526.000000	85.446940 
2525.000000	85.378915 
2524.000000	85.307594 
2523.000000	85.238201 
2522.000000	85.167991 
2521.000000	85.091238 
2520.000000	85.005596 
2519.000000	84.912337 
2518.000000	84.815779 
2517.000000	84.724181 
2516.000000	84.645680 
2515.000000	84.581115 
2514.000000	84.525276 
2513.000000	84.476466 
2512.000000	84.440141 
2511.000000	84.422229 
2510.000000	84.423847 
2509.000000	84.443703 
2508.000000	84.480981 
2507.000000	84.535022 
2506.000000	84.606623 
2505.000000	84.700099 
2504.000000	84.819604 
2503.000000	84.963479 
2502.000000	85.126765 
2501.000000	85.308298 
2500.000000	85.509537 
2499.000000	85.726818 
2498.000000	85.951198 
2497.000000	86.176379 
2496.000000	86.400722 
2495.000000	86.621434 
2494.000000	86.833786 
2493.000000	87.037172 
2492.000000	87.234827 
2491.000000	87.425822 
2490.000000	87.604301 
2489.000000	87.769015 
2488.000000	87.926483 
2487.000000	88.081191 
2486.000000	88.228373 
2485.000000	88.359809 
2484.000000	88.471776 
2483.000000	88.564808 
2482.000000	88.641180 
2481.000000	88.705627 
2480.000000	88.763324 
2479.000000	88.813961 
2478.000000	88.852079 
2477.000000	88.875257 
2476.000000	88.887215 
2475.000000	88.891320 
2474.000000	88.886984 
2473.000000	88.875176 
2472.000000	88.862357 
2471.000000	88.856402 
2470.000000	88.863318 
2469.000000	88.889696 
2468.000000	88.942720 
2467.000000	89.024454 
2466.000000	89.129684 
2465.000000	89.251010 
2464.000000	89.382646 
2463.000000	89.519170 
2462.000000	89.656017 
2461.000000	89.792520 
2460.000000	89.929491 
2459.000000	90.062872 
2458.000000	90.185290 
2457.000000	90.295272 
2456.000000	90.399461 
2455.000000	90.504276 
2454.000000	90.610640 
2453.000000	90.717748 
2452.000000	90.825392 
2451.000000	90.930601 
2450.000000	91.028171 
2449.000000	91.116980 
2448.000000	91.200556 
2447.000000	91.280106 
2446.000000	91.353094 
2445.000000	91.419644 
2444.000000	91.482929 
2443.000000	91.541224 
2442.000000	91.587288 
2441.000000	91.618883 
2440.000000	91.642961 
2439.000000	91.666208 
2438.000000	91.688191 
2437.000000	91.707291 
2436.000000	91.726545 
2435.000000	91.749486 
2434.000000	91.775974 
2433.000000	91.805616 
2432.000000	91.839533 
2431.000000	91.875326 
2430.000000	91.906099 
2429.000000	91.928343 
2428.000000	91.946091 
2427.000000	91.964586 
2426.000000	91.984892 
2425.000000	92.006856 
2424.000000	92.031270 
2423.000000	92.056272 
2422.000000	92.077632 
2421.000000	92.096000 
2420.000000	92.118825 
2419.000000	92.152447 
2418.000000	92.197261 
2417.000000	92.252259 
2416.000000	92.317692 
2415.000000	92.390283 
2414.000000	92.461956 
2413.000000	92.527067 
2412.000000	92.586473 
2411.000000	92.642731 
2410.000000	92.697153 
2409.000000	92.753607 
2408.000000	92.817891 
2407.000000	92.889150 
2406.000000	92.957549 
2405.000000	93.014335 
2404.000000	93.059414 
2403.000000	93.096428 
2402.000000	93.126383 
2401.000000	93.149625 
2400.000000	93.168199 
2399.000000	93.181881 
2398.000000	93.186505 
2397.000000	93.180160 
2396.000000	93.167175 
2395.000000	93.153003 
2394.000000	93.139341 
2393.000000	93.127059 
2392.000000	93.119696 
2391.000000	93.121022 
2390.000000	93.132538 
2389.000000	93.155020 
2388.000000	93.188556 
2387.000000	93.229828 
2386.000000	93.274113 
2385.000000	93.321370 
2384.000000	93.375387 
2383.000000	93.435007 
2382.000000	93.491886 
2381.000000	93.540299 
2380.000000	93.583902 
2379.000000	93.628684 
2378.000000	93.674933 
2377.000000	93.720704 
2376.000000	93.767379 
2375.000000	93.815043 
2374.000000	93.857874 
2373.000000	93.892154 
2372.000000	93.922143 
2371.000000	93.953225 
2370.000000	93.987437 
2369.000000	94.031645 
2368.000000	94.095236 
2367.000000	94.169756 
2366.000000	94.224922 
2365.000000	94.238679 
2364.000000	94.223392 
2363.000000	94.214196 
2362.000000	94.230514 
2361.000000	94.265804 
2360.000000	94.306119 
2359.000000	94.335394 
2358.000000	94.350426 
2357.000000	94.366787 
2356.000000	94.398368 
2355.000000	94.444745 
2354.000000	94.492810 
2353.000000	94.536718 
2352.000000	94.565554 
2351.000000	94.568243 
2350.000000	94.557789 
2349.000000	94.560065 
2348.000000	94.592489 
2347.000000	94.637338 
2346.000000	94.660942 
2345.000000	94.654444 
2344.000000	94.634166 
2343.000000	94.624356 
2342.000000	94.623924 
2341.000000	94.634779 
2340.000000	94.663234 
2339.000000	94.704528 
2338.000000	94.743982 
2337.000000	94.771242 
2336.000000	94.791701 
2335.000000	94.807449 
2334.000000	94.817442 
2333.000000	94.820602 
2332.000000	94.826343 
2331.000000	94.833559 
2330.000000	94.840606 
2329.000000	94.829849 
2328.000000	94.799460 
2327.000000	94.744326 
2326.000000	94.675808 
2325.000000	94.616567 
2324.000000	94.590927 
2323.000000	94.607991 
2322.000000	94.649667 
2321.000000	94.697878 
2320.000000	94.744352 
2319.000000	94.783594 
2318.000000	94.810083 
2317.000000	94.821582 
2316.000000	94.829330 
2315.000000	94.834794 
2314.000000	94.835542 
2313.000000	94.820863 
2312.000000	94.792106 
2311.000000	94.747104 
2310.000000	94.693066 
2309.000000	94.638474 
2308.000000	94.596745 
2307.000000	94.563586 
2306.000000	94.527417 
2305.000000	94.477976 
2304.000000	94.418325 
2303.000000	94.350551 
2302.000000	94.277907 
2301.000000	94.205279 
2300.000000	94.143558 
2299.000000	94.094238 
2298.000000	94.055181 
2297.000000	94.025966 
2296.000000	94.012118 
2295.000000	94.009064 
2294.000000	94.007049 
2293.000000	94.004487 
2292.000000	94.013444 
2291.000000	94.042117 
2290.000000	94.086504 
2289.000000	94.140515 
2288.000000	94.203680 
2287.000000	94.274585 
2286.000000	94.346915 
2285.000000	94.419591 
2284.000000	94.498623 
2283.000000	94.584842 
2282.000000	94.667680 
2281.000000	94.739146 
2280.000000	94.802267 
2279.000000	94.860997 
2278.000000	94.912379 
2277.000000	94.957337 
2276.000000	95.007079 
2275.000000	95.068486 
2274.000000	95.133396 
2273.000000	95.189192 
2272.000000	95.231952 
2271.000000	95.261523 
2270.000000	95.276148 
2269.000000	95.280008 
2268.000000	95.285585 
2267.000000	95.299179 
2266.000000	95.313075 
2265.000000	95.317862 
2264.000000	95.312396 
2263.000000	95.294970 
2262.000000	95.257669 
2261.000000	95.197994 
2260.000000	95.125657 
2259.000000	95.051925 
2258.000000	94.980359 
2257.000000	94.912418 
2256.000000	94.848812 
2255.000000	94.781694 
2254.000000	94.699557 
2253.000000	94.605843 
2252.000000	94.520559 
2251.000000	94.458329 
2250.000000	94.419071 
2249.000000	94.402444 
2248.000000	94.416279 
2247.000000	94.464037 
2246.000000	94.537934 
2245.000000	94.629640 
2244.000000	94.735678 
2243.000000	94.848591 
2242.000000	94.956802 
2241.000000	95.056936 
2240.000000	95.152349 
2239.000000	95.238111 
2238.000000	95.305152 
2237.000000	95.361168 
2236.000000	95.425457 
2235.000000	95.497839 
2234.000000	95.555301 
2233.000000	95.587615 
2232.000000	95.613616 
2231.000000	95.652101 
2230.000000	95.698771 
2229.000000	95.743030 
2228.000000	95.785790 
2227.000000	95.827385 
2226.000000	95.857930 
2225.000000	95.873747 
2224.000000	95.886643 
2223.000000	95.905609 
2222.000000	95.926452 
2221.000000	95.948159 
2220.000000	95.979845 
2219.000000	96.022209 
2218.000000	96.062328 
2217.000000	96.095471 
2216.000000	96.130845 
2215.000000	96.167553 
2214.000000	96.189196 
2213.000000	96.192556 
2212.000000	96.196640 
2211.000000	96.212208 
2210.000000	96.228340 
2209.000000	96.240725 
2208.000000	96.264437 
2207.000000	96.302390 
2206.000000	96.328406 
2205.000000	96.321073 
2204.000000	96.292214 
2203.000000	96.264697 
2202.000000	96.244630 
2201.000000	96.230435 
2200.000000	96.224644 
2199.000000	96.220369 
2198.000000	96.200465 
2197.000000	96.167056 
2196.000000	96.147712 
2195.000000	96.154981 
2194.000000	96.163954 
2193.000000	96.147258 
2192.000000	96.108969 
2191.000000	96.067336 
2190.000000	96.029440 
2189.000000	96.000466 
2188.000000	95.991096 
2187.000000	95.995786 
2186.000000	95.989553 
2185.000000	95.967047 
2184.000000	95.958804 
2183.000000	95.984475 
2182.000000	96.014242 
2181.000000	96.002747 
2180.000000	95.942342 
2179.000000	95.860950 
2178.000000	95.788727 
2177.000000	95.745562 
2176.000000	95.736941 
2175.000000	95.741365 
2174.000000	95.720145 
2173.000000	95.655383 
2172.000000	95.562851 
2171.000000	95.461608 
2170.000000	95.356070 
2169.000000	95.255546 
2168.000000	95.181338 
2167.000000	95.138568 
2166.000000	95.103539 
2165.000000	95.051547 
2164.000000	94.978718 
2163.000000	94.896077 
2162.000000	94.835673 
2161.000000	94.862769 
2160.000000	95.025984 
2159.000000	95.273322 
2158.000000	95.476746 
2157.000000	95.564262 
2156.000000	95.566076 
2155.000000	95.528756 
2154.000000	95.459489 
2153.000000	95.362488 
2152.000000	95.266245 
2151.000000	95.189737 
2150.000000	95.121624 
2149.000000	95.053238 
2148.000000	94.999977 
2147.000000	94.972887 
2146.000000	94.958052 
2145.000000	94.937462 
2144.000000	94.902837 
2143.000000	94.840647 
2142.000000	94.735881 
2141.000000	94.602228 
2140.000000	94.477277 
2139.000000	94.375696 
2138.000000	94.276151 
2137.000000	94.162610 
2136.000000	94.045257 
2135.000000	93.927121 
2134.000000	93.783417 
2133.000000	93.593549 
2132.000000	93.367686 
2131.000000	93.125236 
2130.000000	92.869778 
2129.000000	92.598612 
2128.000000	92.317313 
2127.000000	92.031883 
2126.000000	91.741076 
2125.000000	91.445797 
2124.000000	91.153568 
2123.000000	90.867923 
2122.000000	90.586025 
2121.000000	90.310116 
2120.000000	90.048053 
2119.000000	89.800774 
2118.000000	89.563763 
2117.000000	89.342705 
2116.000000	89.153376 
2115.000000	89.004470 
2114.000000	88.894109 
2113.000000	88.822794 
2112.000000	88.794172 
2111.000000	88.802547 
2110.000000	88.835858 
2109.000000	88.892617 
2108.000000	88.980239 
2107.000000	89.095660 
2106.000000	89.225283 
2105.000000	89.366654 
2104.000000	89.531466 
2103.000000	89.721100 
2102.000000	89.916695 
2101.000000	90.101828 
2100.000000	90.281141 
2099.000000	90.468928 
2098.000000	90.671634 
2097.000000	90.886699 
2096.000000	91.104120 
2095.000000	91.303615 
2094.000000	91.465421 
2093.000000	91.590962 
2092.000000	91.700123 
2091.000000	91.804914 
2090.000000	91.900501 
2089.000000	91.983781 
2088.000000	92.062018 
2087.000000	92.137230 
2086.000000	92.200340 
2085.000000	92.248241 
2084.000000	92.290004 
2083.000000	92.329380 
2082.000000	92.359145 
2081.000000	92.380319 
2080.000000	92.408400 
2079.000000	92.451236 
2078.000000	92.498360 
2077.000000	92.541488 
2076.000000	92.588198 
2075.000000	92.645676 
2074.000000	92.708316 
2073.000000	92.771229 
2072.000000	92.839618 
2071.000000	92.915348 
2070.000000	92.991039 
2069.000000	93.066487 
2068.000000	93.154264 
2067.000000	93.260318 
2066.000000	93.374986 
2065.000000	93.489913 
2064.000000	93.607161 
2063.000000	93.725977 
2062.000000	93.839791 
2061.000000	93.951083 
2060.000000	94.068336 
2059.000000	94.184776 
2058.000000	94.284561 
2057.000000	94.373439 
2056.000000	94.472946 
2055.000000	94.576064 
2054.000000	94.642620 
2053.000000	94.654665 
2052.000000	94.645920 
2051.000000	94.659339 
2050.000000	94.703740 
2049.000000	94.767283 
2048.000000	94.844384 
2047.000000	94.925487 
2046.000000	94.987385 
2045.000000	95.020057 
2044.000000	95.039514 
2043.000000	95.054011 
2042.000000	95.044583 
2041.000000	94.997874 
2040.000000	94.930019 
2039.000000	94.860685 
2038.000000	94.795130 
2037.000000	94.745422 
2036.000000	94.731251 
2035.000000	94.743197 
2034.000000	94.745647 
2033.000000	94.733906 
2032.000000	94.745464 
2031.000000	94.797423 
2030.000000	94.861490 
2029.000000	94.919644 
2028.000000	94.996499 
2027.000000	95.113019 
2026.000000	95.252229 
2025.000000	95.392673 
2024.000000	95.534976 
2023.000000	95.674068 
2022.000000	95.787402 
2021.000000	95.873238 
2020.000000	95.959361 
2019.000000	96.052887 
2018.000000	96.125044 
2017.000000	96.166633 
2016.000000	96.211380 
2015.000000	96.278660 
2014.000000	96.342129 
2013.000000	96.379557 
2012.000000	96.408543 
2011.000000	96.450314 
2010.000000	96.502929 
2009.000000	96.571443 
2008.000000	96.674377 
2007.000000	96.792197 
2006.000000	96.860160 
2005.000000	96.845110 
2004.000000	96.785603 
2003.000000	96.731689 
2002.000000	96.692888 
2001.000000	96.664760 
2000.000000	96.657241 
1999.000000	96.670491 
1998.000000	96.680657 
1997.000000	96.675232 
1996.000000	96.670481 
1995.000000	96.674303 
1994.000000	96.667531 
1993.000000	96.642076 
1992.000000	96.621773 
1991.000000	96.622371 
1990.000000	96.628621 
1989.000000	96.630681 
1988.000000	96.640311 
1987.000000	96.653396 
1986.000000	96.641776 
1985.000000	96.603319 
1984.000000	96.573975 
1983.000000	96.566835 
1982.000000	96.549023 
1981.000000	96.508888 
1980.000000	96.497309 
1979.000000	96.561612 
1978.000000	96.676460 
1977.000000	96.784007 
1976.000000	96.864137 
1975.000000	96.919163 
1974.000000	96.938146 
1973.000000	96.924746 
1972.000000	96.916193 
1971.000000	96.934323 
1970.000000	96.956052 
1969.000000	96.959906 
1968.000000	96.960321 
1967.000000	96.968402 
1966.000000	96.963686 
1965.000000	96.937398 
1964.000000	96.920198 
1963.000000	96.937923 
1962.000000	96.977933 
1961.000000	97.019746 
1960.000000	97.061319 
1959.000000	97.095125 
1958.000000	97.099587 
1957.000000	97.076413 
1956.000000	97.057906 
1955.000000	97.059747 
1954.000000	97.064485 
1953.000000	97.065577 
1952.000000	97.085670 
1951.000000	97.131544 
1950.000000	97.172865 
1949.000000	97.187666 
1948.000000	97.191917 
1947.000000	97.203524 
1946.000000	97.214519 
1945.000000	97.220235 
1944.000000	97.239428 
1943.000000	97.280461 
1942.000000	97.319848 
1941.000000	97.340316 
1940.000000	97.356060 
1939.000000	97.379041 
1938.000000	97.397441 
1937.000000	97.404469 
1936.000000	97.415356 
1935.000000	97.437415 
1934.000000	97.455536 
1933.000000	97.466139 
1932.000000	97.492184 
1931.000000	97.542247 
1930.000000	97.587689 
1929.000000	97.602246 
1928.000000	97.596556 
1927.000000	97.593905 
1926.000000	97.597820 
1925.000000	97.604601 
1924.000000	97.619633 
1923.000000	97.641641 
1922.000000	97.654582 
1921.000000	97.653617 
1920.000000	97.654723 
1919.000000	97.665990 
1918.000000	97.673401 
1917.000000	97.669005 
1916.000000	97.666114 
1915.000000	97.671232 
1914.000000	97.671925 
1913.000000	97.664025 
1912.000000	97.662801 
1911.000000	97.673860 
1910.000000	97.680252 
1909.000000	97.673020 
1908.000000	97.666707 
1907.000000	97.669171 
1906.000000	97.665374 
1905.000000	97.648627 
1904.000000	97.637179 
1903.000000	97.643983 
1902.000000	97.657063 
1901.000000	97.664045 
1900.000000	97.670079 
1899.000000	97.676579 
1898.000000	97.669064 
1897.000000	97.645322 
1896.000000	97.629515 
1895.000000	97.638942 
1894.000000	97.660323 
1893.000000	97.676681 
1892.000000	97.692637 
1891.000000	97.716336 
1890.000000	97.740288 
1889.000000	97.757876 
1888.000000	97.778036 
1887.000000	97.805574 
1886.000000	97.830314 
1885.000000	97.849099 
1884.000000	97.875188 
1883.000000	97.912708 
1882.000000	97.946014 
1881.000000	97.966910 
1880.000000	97.987613 
1879.000000	98.013432 
1878.000000	98.028525 
1877.000000	98.025339 
1876.000000	98.021397 
1875.000000	98.028523 
1874.000000	98.033169 
1873.000000	98.024780 
1872.000000	98.016027 
1871.000000	98.016423 
1870.000000	98.011013 
1869.000000	97.988313 
1868.000000	97.967656 
1867.000000	97.967825 
1866.000000	97.976664 
1865.000000	97.976352 
1864.000000	97.969504 
1863.000000	97.963267 
1862.000000	97.951094 
1861.000000	97.928886 
1860.000000	97.909380 
1859.000000	97.901318 
1858.000000	97.893405 
1857.000000	97.875905 
1856.000000	97.857856 
1855.000000	97.846289 
1854.000000	97.829665 
1853.000000	97.799390 
1852.000000	97.766829 
1851.000000	97.743689 
1850.000000	97.722398 
1849.000000	97.694235 
1848.000000	97.667752 
1847.000000	97.651598 
1846.000000	97.637333 
1845.000000	97.616448 
1844.000000	97.598902 
1843.000000	97.593249 
1842.000000	97.590316 
1841.000000	97.584932 
1840.000000	97.587438 
1839.000000	97.604219 
1838.000000	97.625218 
1837.000000	97.643998 
1836.000000	97.669807 
1835.000000	97.705415 
1834.000000	97.734887 
1833.000000	97.748578 
1832.000000	97.760595 
1831.000000	97.787142 
1830.000000	97.820859 
1829.000000	97.848383 
1828.000000	97.876118 
1827.000000	97.910461 
1826.000000	97.937197 
1825.000000	97.943502 
1824.000000	97.942558 
1823.000000	97.952678 
1822.000000	97.971968 
1821.000000	97.993394 
1820.000000	98.022494 
1819.000000	98.061867 
1818.000000	98.095499 
1817.000000	98.108568 
1816.000000	98.105987 
1815.000000	98.095986 
1814.000000	98.074318 
1813.000000	98.039700 
1812.000000	98.008755 
1811.000000	97.995101 
1810.000000	97.989652 
1809.000000	97.979637 
1808.000000	97.967579 
1807.000000	97.957641 
1806.000000	97.943423 
1805.000000	97.922641 
1804.000000	97.906280 
1803.000000	97.899788 
1802.000000	97.891822 
1801.000000	97.874385 
1800.000000	97.860180 
1799.000000	97.859506 
1798.000000	97.862366 
1797.000000	97.858415 
1796.000000	97.852904 
1795.000000	97.850409 
1794.000000	97.841774 
1793.000000	97.822435 
1792.000000	97.809798 
1791.000000	97.815722 
1790.000000	97.826138 
1789.000000	97.828711 
1788.000000	97.831091 
1787.000000	97.841707 
1786.000000	97.852789 
1785.000000	97.854784 
1784.000000	97.853148 
1783.000000	97.854058 
1782.000000	97.850582 
1781.000000	97.837242 
1780.000000	97.826842 
1779.000000	97.828504 
1778.000000	97.828202 
1777.000000	97.809718 
1776.000000	97.777480 
1775.000000	97.744735 
1774.000000	97.711517 
1773.000000	97.674356 
1772.000000	97.645883 
1771.000000	97.635941 
1770.000000	97.631106 
1769.000000	97.618421 
1768.000000	97.604203 
1767.000000	97.596303 
1766.000000	97.587822 
1765.000000	97.572736 
1764.000000	97.558674 
1763.000000	97.550389 
1762.000000	97.536325 
1761.000000	97.508567 
1760.000000	97.482602 
1759.000000	97.470572 
1758.000000	97.462117 
1757.000000	97.443448 
1756.000000	97.419247 
1755.000000	97.399064 
1754.000000	97.376841 
1753.000000	97.344739 
1752.000000	97.310986 
1751.000000	97.285871 
1750.000000	97.259468 
1749.000000	97.224196 
1748.000000	97.193885 
1747.000000	97.177530 
1746.000000	97.160653 
1745.000000	97.130123 
1744.000000	97.096619 
1743.000000	97.071618 
1742.000000	97.044971 
1741.000000	97.006796 
1740.000000	96.970881 
1739.000000	96.950440 
1738.000000	96.933681 
1737.000000	96.907678 
1736.000000	96.879710 
1735.000000	96.861661 
1734.000000	96.846093 
1733.000000	96.820294 
1732.000000	96.796640 
1731.000000	96.783157 
1730.000000	96.764782 
1729.000000	96.731905 
1728.000000	96.698693 
1727.000000	96.677261 
1726.000000	96.655613 
1725.000000	96.620933 
1724.000000	96.584772 
1723.000000	96.559542 
1722.000000	96.534785 
1721.000000	96.499106 
1720.000000	96.463355 
1719.000000	96.443491 
1718.000000	96.433147 
1717.000000	96.421041 
1716.000000	96.422574 
1715.000000	96.449511 
1714.000000	96.483873 
1713.000000	96.509818 
1712.000000	96.536282 
1711.000000	96.572492 
1710.000000	96.606145 
1709.000000	96.623461 
1708.000000	96.634546 
1707.000000	96.655037 
1706.000000	96.674595 
1705.000000	96.675902 
1704.000000	96.669105 
1703.000000	96.669655 
1702.000000	96.664154 
1701.000000	96.631529 
1700.000000	96.593127 
1699.000000	96.579637 
1698.000000	96.574478 
1697.000000	96.552098 
1696.000000	96.518438 
1695.000000	96.491409 
1694.000000	96.463800 
1693.000000	96.424715 
1692.000000	96.383408 
1691.000000	96.347947 
1690.000000	96.305233 
1689.000000	96.244014 
1688.000000	96.181247 
1687.000000	96.133227 
1686.000000	96.075836 
1685.000000	95.975125 
1684.000000	95.856759 
1683.000000	95.773915 
1682.000000	95.716788 
1681.000000	95.649797 
1680.000000	95.572460 
1679.000000	95.501173 
1678.000000	95.427602 
1677.000000	95.331079 
1676.000000	95.220901 
1675.000000	95.128344 
1674.000000	95.052751 
1673.000000	94.971469 
1672.000000	94.888700 
1671.000000	94.817244 
1670.000000	94.741702 
1669.000000	94.641590 
1668.000000	94.538177 
1667.000000	94.452245 
1666.000000	94.355653 
1665.000000	94.208830 
1664.000000	94.008798 
1663.000000	93.775992 
1662.000000	93.510548 
1661.000000	93.198256 
1660.000000	92.844320 
1659.000000	92.454261 
1658.000000	92.013564 
1657.000000	91.515047 
1656.000000	90.960597 
1655.000000	90.267045 
1654.000000	89.201113 
1653.000000	87.748219 
1652.000000	86.444348 
1651.000000	85.553487 
1650.000000	84.855090 
1649.000000	84.119829 
1648.000000	83.292122 
1647.000000	82.501395 
1646.000000	81.903507 
1645.000000	81.511875 
1644.000000	81.274974 
1643.000000	81.147658 
1642.000000	81.055226 
1641.000000	80.912078 
1640.000000	80.698603 
1639.000000	80.439235 
1638.000000	80.081318 
1637.000000	79.469833 
1636.000000	78.523956 
1635.000000	77.410832 
1634.000000	76.314845 
1633.000000	75.211951 
1632.000000	74.024304 
1631.000000	72.717652 
1630.000000	71.237194 
1629.000000	69.513031 
1628.000000	67.599328 
1627.000000	65.677290 
1626.000000	63.817120 
1625.000000	61.885271 
1624.000000	59.784049 
1623.000000	57.693757 
1622.000000	55.915699 
1621.000000	54.529706 
1620.000000	53.430008 
1619.000000	52.513546 
1618.000000	51.684924 
1617.000000	50.848875 
1616.000000	50.040737 
1615.000000	49.403726 
1614.000000	48.965349 
1613.000000	48.648414 
1612.000000	48.451448 
1611.000000	48.486284 
1610.000000	48.823979 
1609.000000	49.389699 
1608.000000	50.052745 
1607.000000	50.705571 
1606.000000	51.223507 
1605.000000	51.465642 
1604.000000	51.362868 
1603.000000	50.944141 
1602.000000	50.257982 
1601.000000	49.324807 
1600.000000	48.186973 
1599.000000	46.931664 
1598.000000	45.617638 
1597.000000	44.236570 
1596.000000	42.790692 
1595.000000	41.345736 
1594.000000	39.952970 
1593.000000	38.585020 
1592.000000	37.211146 
1591.000000	35.865336 
1590.000000	34.584488 
1589.000000	33.354809 
1588.000000	32.184680 
1587.000000	31.157049 
1586.000000	30.339721 
1585.000000	29.711254 
1584.000000	29.241727 
1583.000000	28.968225 
1582.000000	28.910799 
1581.000000	28.994187 
1580.000000	29.141983 
1579.000000	29.377638 
1578.000000	29.760926 
1577.000000	30.273336 
1576.000000	30.825731 
1575.000000	31.371549 
1574.000000	31.914342 
1573.000000	32.447430 
1572.000000	32.988328 
1571.000000	33.604615 
1570.000000	34.316652 
1569.000000	35.008581 
1568.000000	35.585887 
1567.000000	36.112783 
1566.000000	36.679213 
1565.000000	37.270696 
1564.000000	37.823467 
1563.000000	38.345020 
1562.000000	38.903790 
1561.000000	39.556403 
1560.000000	40.339882 
1559.000000	41.228782 
1558.000000	42.063180 
1557.000000	42.766520 
1556.000000	43.423483 
1555.000000	44.127315 
1554.000000	44.879694 
1553.000000	45.599662 
1552.000000	46.249482 
1551.000000	46.878325 
1550.000000	47.524398 
1549.000000	48.153665 
1548.000000	48.740776 
1547.000000	49.337888 
1546.000000	50.009215 
1545.000000	50.750049 
1544.000000	51.516335 
1543.000000	52.320029 
1542.000000	53.228154 
1541.000000	54.281357 
1540.000000	55.441408 
1539.000000	56.598713 
1538.000000	57.654381 
1537.000000	58.593348 
1536.000000	59.471256 
1535.000000	60.350673 
1534.000000	61.213018 
1533.000000	61.942028 
1532.000000	62.474908 
1531.000000	62.851869 
1530.000000	63.085886 
1529.000000	63.123838 
1528.000000	62.908083 
1527.000000	62.420415 
1526.000000	61.696713 
1525.000000	60.828173 
1524.000000	59.886566 
1523.000000	58.833244 
1522.000000	57.609061 
1521.000000	56.385838 
1520.000000	55.491688 
1519.000000	55.028732 
1518.000000	54.893091 
1517.000000	54.986896 
1516.000000	55.262303 
1515.000000	55.678187 
1514.000000	56.182426 
1513.000000	56.706091 
1512.000000	57.171735 
1511.000000	57.539077 
1510.000000	57.824872 
1509.000000	58.051645 
1508.000000	58.218662 
1507.000000	58.362468 
1506.000000	58.594305 
1505.000000	58.973628 
1504.000000	59.465435 
1503.000000	60.039308 
1502.000000	60.689250 
1501.000000	61.398025 
1500.000000	62.137646 
1499.000000	62.910028 
1498.000000	63.749431 
1497.000000	64.661030 
1496.000000	65.593275 
1495.000000	66.502388 
1494.000000	67.391296 
1493.000000	68.273504 
1492.000000	69.162389 
1491.000000	70.079465 
1490.000000	71.016945 
1489.000000	71.914608 
1488.000000	72.737590 
1487.000000	73.512806 
1486.000000	74.252475 
1485.000000	74.919919 
1484.000000	75.495790 
1483.000000	76.020078 
1482.000000	76.535289 
1481.000000	77.035137 
1480.000000	77.502131 
1479.000000	77.948168 
1478.000000	78.371597 
1477.000000	78.726274 
1476.000000	78.979237 
1475.000000	79.144872 
1474.000000	79.204647 
1473.000000	79.070021 
1472.000000	78.715566 
1471.000000	78.224762 
1470.000000	77.620113 
1469.000000	76.828742 
1468.000000	75.797821 
1467.000000	74.520424 
1466.000000	73.000456 
1465.000000	71.338172 
1464.000000	69.810021 
1463.000000	68.617052 
1462.000000	67.642076 
1461.000000	66.595016 
1460.000000	65.215441 
1459.000000	63.264466 
1458.000000	60.517986 
1457.000000	57.247738 
1456.000000	54.508822 
1455.000000	53.027811 
1454.000000	52.707617 
1453.000000	53.290699 
1452.000000	54.598275 
1451.000000	56.398841 
1450.000000	58.435306 
1449.000000	60.534712 
1448.000000	62.563945 
1447.000000	64.401718 
1446.000000	66.039969 
1445.000000	67.582248 
1444.000000	69.127579 
1443.000000	70.714736 
1442.000000	72.323924 
1441.000000	73.871802 
1440.000000	75.252732 
1439.000000	76.436161 
1438.000000	77.478864 
1437.000000	78.396732 
1436.000000	79.094165 
1435.000000	79.538739 
1434.000000	79.827523 
1433.000000	80.019947 
1432.000000	80.084854 
1431.000000	79.994967 
1430.000000	79.776923 
1429.000000	79.447894 
1428.000000	78.990162 
1427.000000	78.394585 
1426.000000	77.632225 
1425.000000	76.610586 
1424.000000	75.283373 
1423.000000	73.751533 
1422.000000	72.064147 
1421.000000	69.988605 
1420.000000	67.170416 
1419.000000	63.642980 
1418.000000	59.947378 
1417.000000	56.472407 
1416.000000	53.239280 
1415.000000	50.259808 
1414.000000	47.654533 
1413.000000	45.590345 
1412.000000	44.290798 
1411.000000	43.970187 
1410.000000	44.646771 
1409.000000	46.148993 
1408.000000	48.309969 
1407.000000	51.012674 
1406.000000	54.089036 
1405.000000	57.289601 
1404.000000	60.349136 
1403.000000	63.086391 
1402.000000	65.487307 
1401.000000	67.678349 
1400.000000	69.782644 
1399.000000	71.781078 
1398.000000	73.563701 
1397.000000	75.110255 
1396.000000	76.501400 
1395.000000	77.788703 
1394.000000	78.943066 
1393.000000	79.926828 
1392.000000	80.751159 
1391.000000	81.454833 
1390.000000	82.074819 
1389.000000	82.629645 
1388.000000	83.107972 
1387.000000	83.482651 
1386.000000	83.739046 
1385.000000	83.856013 
1384.000000	83.756409 
1383.000000	83.304484 
1382.000000	82.366717 
1381.000000	80.912937 
1380.000000	79.131253 
1379.000000	77.462512 
1378.000000	76.377214 
1377.000000	76.001354 
1376.000000	76.015379 
1375.000000	75.915837 
1374.000000	75.346777 
1373.000000	74.227984 
1372.000000	72.613510 
1371.000000	70.525781 
1370.000000	67.958068 
1369.000000	64.960778 
1368.000000	61.698216 
1367.000000	58.408798 
1366.000000	55.285612 
1365.000000	52.425346 
1364.000000	49.937422 
1363.000000	48.065602 
1362.000000	47.063213 
1361.000000	46.909095 
1360.000000	47.298839 
1359.000000	47.921247 
1358.000000	48.669667 
1357.000000	49.658653 
1356.000000	51.097624 
1355.000000	53.110916 
1354.000000	55.624729 
1353.000000	58.411848 
1352.000000	61.233823 
1351.000000	63.929408 
1350.000000	66.409073 
1349.000000	68.627444 
1348.000000	70.578463 
1347.000000	72.290883 
1346.000000	73.806487 
1345.000000	75.156119 
1344.000000	76.354915 
1343.000000	77.417145 
1342.000000	78.369177 
1341.000000	79.241264 
1340.000000	80.047390 
1339.000000	80.782345 
1338.000000	81.442686 
1337.000000	82.039127 
1336.000000	82.585103 
1335.000000	83.086598 
1334.000000	83.545489 
1333.000000	83.961991 
1332.000000	84.331489 
1331.000000	84.647543 
1330.000000	84.909777 
1329.000000	85.121013 
1328.000000	85.276724 
1327.000000	85.364578 
1326.000000	85.373084 
1325.000000	85.292599 
1324.000000	85.110521 
1323.000000	84.811139 
1322.000000	84.374198 
1321.000000	83.765097 
1320.000000	82.931620 
1319.000000	81.817773 
1318.000000	80.372547 
1317.000000	78.533956 
1316.000000	76.212790 
1315.000000	73.309922 
1314.000000	69.766185 
1313.000000	65.626052 
1312.000000	61.084526 
1311.000000	56.469979 
1310.000000	52.164180 
1309.000000	48.540467 
1308.000000	45.949427 
1307.000000	44.665757 
1306.000000	44.779317 
1305.000000	46.152884 
1304.000000	48.491397 
1303.000000	51.429618 
1302.000000	54.601681 
1301.000000	57.719599 
1300.000000	60.627633 
1299.000000	63.284508 
1298.000000	65.702579 
1297.000000	67.904495 
1296.000000	69.911908 
1295.000000	71.743287 
1294.000000	73.408270 
1293.000000	74.906804 
1292.000000	76.239324 
1291.000000	77.418923 
1290.000000	78.470365 
1289.000000	79.415908 
1288.000000	80.267381 
1287.000000	81.034410 
1286.000000	81.731704 
1285.000000	82.371808 
1284.000000	82.958735 
1283.000000	83.496495 
1282.000000	83.996430 
1281.000000	84.467754 
1280.000000	84.908537 
1279.000000	85.315822 
1278.000000	85.697311 
1277.000000	86.063000 
1276.000000	86.412539 
1275.000000	86.741525 
1274.000000	87.052782 
1273.000000	87.350114 
1272.000000	87.628178 
1271.000000	87.881036 
1270.000000	88.114751 
1269.000000	88.339441 
1268.000000	88.555072 
1267.000000	88.756263 
1266.000000	88.943281 
1265.000000	89.116492 
1264.000000	89.268179 
1263.000000	89.393113 
1262.000000	89.499960 
1261.000000	89.599325 
1260.000000	89.687890 
1259.000000	89.757118 
1258.000000	89.809040 
1257.000000	89.849601 
1256.000000	89.874091 
1255.000000	89.872655 
1254.000000	89.843244 
1253.000000	89.786446 
1252.000000	89.693688 
1251.000000	89.551369 
1250.000000	89.348104 
1249.000000	89.065921 
1248.000000	88.671604 
1247.000000	88.124664 
1246.000000	87.380195 
1245.000000	86.371156 
1244.000000	85.001862 
1243.000000	83.178930 
1242.000000	80.854558 
1241.000000	78.063876 
1240.000000	74.978468 
1239.000000	71.949275 
1238.000000	69.446603 
1237.000000	67.894296 
1236.000000	67.516205 
1235.000000	68.271670 
1234.000000	69.889262 
1233.000000	71.991453 
1232.000000	74.240288 
1231.000000	76.413947 
1230.000000	78.401401 
1229.000000	80.161512 
1228.000000	81.687507 
1227.000000	82.992815 
1226.000000	84.106955 
1225.000000	85.063466 
1224.000000	85.886312 
1223.000000	86.592022 
1222.000000	87.199087 
1221.000000	87.725218 
1220.000000	88.181104 
1219.000000	88.578394 
1218.000000	88.938172 
1217.000000	89.279336 
1216.000000	89.603728 
1215.000000	89.904262 
1214.000000	90.181683 
1213.000000	90.441374 
1212.000000	90.680667 
1211.000000	90.893530 
1210.000000	91.082965 
1209.000000	91.256229 
1208.000000	91.413824 
1207.000000	91.555560 
1206.000000	91.690107 
1205.000000	91.825015 
1204.000000	91.954347 
1203.000000	92.069696 
1202.000000	92.176209 
1201.000000	92.283714 
1200.000000	92.389120 
1199.000000	92.482401 
1198.000000	92.564116 
1197.000000	92.643098 
1196.000000	92.722382 
1195.000000	92.800416 
1194.000000	92.880014 
1193.000000	92.962886 
1192.000000	93.040942 
1191.000000	93.105505 
1190.000000	93.159849 
1189.000000	93.211606 
1188.000000	93.259627 
1187.000000	93.299554 
1186.000000	93.334592 
1185.000000	93.368855 
1184.000000	93.397544 
1183.000000	93.415162 
1182.000000	93.425593 
1181.000000	93.433084 
1180.000000	93.432155 
1179.000000	93.417744 
1178.000000	93.395402 
1177.000000	93.369053 
1176.000000	93.328508 
1175.000000	93.261723 
1174.000000	93.170038 
1173.000000	93.058924 
1172.000000	92.924041 
1171.000000	92.759559 
1170.000000	92.569756 
1169.000000	92.358423 
1168.000000	92.115491 
1167.000000	91.825762 
1166.000000	91.480352 
1165.000000	91.066922 
1164.000000	90.557951 
1163.000000	89.918727 
1162.000000	89.115001 
1161.000000	88.102567 
1160.000000	86.824738 
1159.000000	85.236614 
1158.000000	83.328092 
1157.000000	81.129402 
1156.000000	78.728885 
1155.000000	76.302924 
1154.000000	74.102936 
1153.000000	72.388470 
1152.000000	71.359952 
1151.000000	71.113328 
1150.000000	71.613117 
1149.000000	72.711323 
1148.000000	74.213185 
1147.000000	75.936108 
1146.000000	77.731482 
1145.000000	79.487340 
1144.000000	81.129756 
1143.000000	82.622020 
1142.000000	83.955837 
1141.000000	85.135586 
1140.000000	86.167557 
1139.000000	87.062382 
1138.000000	87.838709 
1137.000000	88.515242 
1136.000000	89.102636 
1135.000000	89.609276 
1134.000000	90.047438 
1133.000000	90.424139 
1132.000000	90.732546 
1131.000000	90.963008 
1130.000000	91.117387 
1129.000000	91.202308 
1128.000000	91.212295 
1127.000000	91.125390 
1126.000000	90.905487 
1125.000000	90.497297 
1124.000000	89.822690 
1123.000000	88.784543 
1122.000000	87.260908 
1121.000000	85.092825 
1120.000000	82.117929 
1119.000000	78.282058 
1118.000000	73.776208 
1117.000000	69.105461 
1116.000000	65.016871 
1115.000000	62.239494 
1114.000000	61.140609 
1113.000000	61.601811 
1112.000000	63.242894 
1111.000000	65.714922 
1110.000000	68.771904 
1109.000000	72.166537 
1108.000000	75.587723 
1107.000000	78.728714 
1106.000000	81.395939 
1105.000000	83.538796 
1104.000000	85.198684 
1103.000000	86.460994 
1102.000000	87.433793 
1101.000000	88.218913 
1100.000000	88.885554 
1099.000000	89.477240 
1098.000000	90.027375 
1097.000000	90.548177 
1096.000000	91.021707 
1095.000000	91.428196 
1094.000000	91.775236 
1093.000000	92.081411 
1092.000000	92.347825 
1091.000000	92.570510 
1090.000000	92.766460 
1089.000000	92.959717 
1088.000000	93.150852 
1087.000000	93.324035 
1086.000000	93.475508 
1085.000000	93.613570 
1084.000000	93.740222 
1083.000000	93.854722 
1082.000000	93.966079 
1081.000000	94.081511 
1080.000000	94.191795 
1079.000000	94.286613 
1078.000000	94.373348 
1077.000000	94.462093 
1076.000000	94.545017 
1075.000000	94.610925 
1074.000000	94.667716 
1073.000000	94.729933 
1072.000000	94.796440 
1071.000000	94.859489 
1070.000000	94.921945 
1069.000000	94.985923 
1068.000000	95.038931 
1067.000000	95.072213 
1066.000000	95.099115 
1065.000000	95.134809 
1064.000000	95.172468 
1063.000000	95.200496 
1062.000000	95.227683 
1061.000000	95.268094 
1060.000000	95.315139 
1059.000000	95.354114 
1058.000000	95.387446 
1057.000000	95.424144 
1056.000000	95.457021 
1055.000000	95.474792 
1054.000000	95.485988 
1053.000000	95.506520 
1052.000000	95.532551 
1051.000000	95.550537 
1050.000000	95.564785 
1049.000000	95.588127 
1048.000000	95.615602 
1047.000000	95.633985 
1046.000000	95.645506 
1045.000000	95.658123 
1044.000000	95.665903 
1043.000000	95.662283 
1042.000000	95.660129 
1041.000000	95.674027 
1040.000000	95.691728 
1039.000000	95.686707 
1038.000000	95.651804 
1037.000000	95.598645 
1036.000000	95.532252 
1035.000000	95.448996 
1034.000000	95.350769 
1033.000000	95.236228 
1032.000000	95.082726 
1031.000000	94.857854 
1030.000000	94.542051 
1029.000000	94.117945 
1028.000000	93.542699 
1027.000000	92.747487 
1026.000000	91.648798 
1025.000000	90.138621 
1024.000000	88.096863 
1023.000000	85.483878 
1022.000000	82.445971 
1021.000000	79.287471 
1020.000000	76.277454 
1019.000000	73.432450 
1018.000000	70.477623 
1017.000000	67.083485 
1016.000000	63.229106 
1015.000000	59.378310 
1014.000000	56.286424 
1013.000000	54.596413 
1012.000000	54.553596 
1011.000000	55.979085 
1010.000000	58.431575 
1009.000000	61.434965 
1008.000000	64.634359 
1007.000000	67.809548 
1006.000000	70.816013 
1005.000000	73.553072 
1004.000000	75.968975 
1003.000000	78.060791 
1002.000000	79.855665 
1001.000000	81.389493 
1000.000000	82.697221 
999.000000	 83.814715 
998.000000	 84.780632 
997.000000	 85.629148 
996.000000	 86.380549 
995.000000	 87.042751 
994.000000	 87.622197 
993.000000	 88.130878 
992.000000	 88.584317 
991.000000	 88.995620 
990.000000	 89.369786 
989.000000	 89.702407 
988.000000	 89.988211 
987.000000	 90.233538 
986.000000	 90.455380 
985.000000	 90.665279 
984.000000	 90.860530 
983.000000	 91.034532 
982.000000	 91.188131 
981.000000	 91.326023 
980.000000	 91.449662 
979.000000	 91.559422 
978.000000	 91.656947 
977.000000	 91.740814 
976.000000	 91.807920 
975.000000	 91.863693 
974.000000	 91.921047 
973.000000	 91.983174 
972.000000	 92.037568 
971.000000	 92.073884 
970.000000	 92.097170 
969.000000	 92.115396 
968.000000	 92.124998 
967.000000	 92.118924 
966.000000	 92.099138 
965.000000	 92.070380 
964.000000	 92.030591 
963.000000	 91.978915 
962.000000	 91.925107 
961.000000	 91.879106 
960.000000	 91.837379 
959.000000	 91.790050 
958.000000	 91.735838 
957.000000	 91.680355 
956.000000	 91.625553 
955.000000	 91.570508 
954.000000	 91.517491 
953.000000	 91.468887 
952.000000	 91.423598 
951.000000	 91.384072 
950.000000	 91.360126 
949.000000	 91.357056 
948.000000	 91.365810 
947.000000	 91.373319 
946.000000	 91.377219 
945.000000	 91.382725 
944.000000	 91.391299 
943.000000	 91.401491 
942.000000	 91.415923 
941.000000	 91.438452 
940.000000	 91.467485 
939.000000	 91.498360 
938.000000	 91.527644 
937.000000	 91.548826 
936.000000	 91.549125 
935.000000	 91.517929 
934.000000	 91.454262 
933.000000	 91.359237 
932.000000	 91.224194 
931.000000	 91.029107 
930.000000	 90.744332 
929.000000	 90.326779 
928.000000	 89.720156 
927.000000	 88.864996 
926.000000	 87.702909 
925.000000	 86.172453 
924.000000	 84.230641 
923.000000	 81.924142 
922.000000	 79.473703 
921.000000	 77.299770 
920.000000	 75.931837 
919.000000	 75.791837 
918.000000	 76.955767 
917.000000	 79.092233 
916.000000	 81.650255 
915.000000	 84.137119 
914.000000	 86.281819 
913.000000	 88.019088 
912.000000	 89.384473 
911.000000	 90.440712 
910.000000	 91.256731 
909.000000	 91.893900 
908.000000	 92.391563 
907.000000	 92.775259 
906.000000	 93.073965 
905.000000	 93.315159 
904.000000	 93.510813 
903.000000	 93.665204 
902.000000	 93.791474 
901.000000	 93.906288 
900.000000	 94.014405 
899.000000	 94.112502 
898.000000	 94.201833 
897.000000	 94.283898 
896.000000	 94.351397 
895.000000	 94.398530 
894.000000	 94.434439 
893.000000	 94.472674 
892.000000	 94.513577 
891.000000	 94.550449 
890.000000	 94.585916 
889.000000	 94.627382 
888.000000	 94.671986 
887.000000	 94.710683 
886.000000	 94.743023 
885.000000	 94.774821 
884.000000	 94.805657 
883.000000	 94.831162 
882.000000	 94.852950 
881.000000	 94.874416 
880.000000	 94.892238 
879.000000	 94.903744 
878.000000	 94.915550 
877.000000	 94.932525 
876.000000	 94.946509 
875.000000	 94.949618 
874.000000	 94.949669 
873.000000	 94.956715 
872.000000	 94.961955 
871.000000	 94.945434 
870.000000	 94.898278 
869.000000	 94.822984 
868.000000	 94.718289 
867.000000	 94.578049 
866.000000	 94.398745 
865.000000	 94.172993 
864.000000	 93.877856 
863.000000	 93.478902 
862.000000	 92.938670 
861.000000	 92.207489 
860.000000	 91.207031 
859.000000	 89.828009 
858.000000	 87.936914 
857.000000	 85.388485 
856.000000	 82.076318 
855.000000	 78.037187 
854.000000	 73.546773 
853.000000	 69.120667 
852.000000	 65.395341 
851.000000	 62.920886 
850.000000	 61.968377 
849.000000	 62.507294 
848.000000	 64.352349 
847.000000	 67.270930 
846.000000	 70.941965 
845.000000	 74.908774 
844.000000	 78.673758 
843.000000	 81.880791 
842.000000	 84.420146 
841.000000	 86.372689 
840.000000	 87.876608 
839.000000	 89.049083 
838.000000	 89.980291 
837.000000	 90.736176 
836.000000	 91.354530 
835.000000	 91.860985 
834.000000	 92.288969 
833.000000	 92.667660 
832.000000	 92.999175 
831.000000	 93.270590 
830.000000	 93.485482 
829.000000	 93.664753 
828.000000	 93.821974 
827.000000	 93.959096 
826.000000	 94.081392 
825.000000	 94.194713 
824.000000	 94.293109 
823.000000	 94.370586 
822.000000	 94.436886 
821.000000	 94.501364 
820.000000	 94.554773 
819.000000	 94.588407 
818.000000	 94.617394 
817.000000	 94.662867 
816.000000	 94.721429 
815.000000	 94.773746 
814.000000	 94.815295 
813.000000	 94.856535 
812.000000	 94.898598 
811.000000	 94.932093 
810.000000	 94.957602 
809.000000	 94.985899 
808.000000	 95.017931 
807.000000	 95.042923 
806.000000	 95.055862 
805.000000	 95.060912 
804.000000	 95.059485 
803.000000	 95.050196 
802.000000	 95.036972 
801.000000	 95.021528 
800.000000	 94.991753 
799.000000	 94.933537 
798.000000	 94.850750 
797.000000	 94.758766 
796.000000	 94.663109 
795.000000	 94.558961 
794.000000	 94.444324 
793.000000	 94.316049 
792.000000	 94.158228 
791.000000	 93.953006 
790.000000	 93.700496 
789.000000	 93.411999 
788.000000	 93.085498 
787.000000	 92.700291 
786.000000	 92.229955 
785.000000	 91.645893 
784.000000	 90.912489 
783.000000	 89.991586 
782.000000	 88.845858 
781.000000	 87.426672 
780.000000	 85.672190 
779.000000	 83.540685 
778.000000	 81.048184 
777.000000	 78.270581 
776.000000	 75.328334 
775.000000	 72.388408 
774.000000	 69.674162 
773.000000	 67.461421 
772.000000	 66.051957 
771.000000	 65.702168 
770.000000	 66.510837 
769.000000	 68.349407 
768.000000	 70.906661 
767.000000	 73.809801 
766.000000	 76.735410 
765.000000	 79.462363 
764.000000	 81.871578 
763.000000	 83.925440 
762.000000	 85.644342 
761.000000	 87.073977 
760.000000	 88.253411 
759.000000	 89.210183 
758.000000	 89.975346 
757.000000	 90.584175 
756.000000	 91.062597 
755.000000	 91.431053 
754.000000	 91.724268 
753.000000	 91.991371 
752.000000	 92.271739 
751.000000	 92.579606 
750.000000	 92.909827 
749.000000	 93.245832 
748.000000	 93.563094 
747.000000	 93.839699 
746.000000	 94.068696 
745.000000	 94.254923 
744.000000	 94.404222 
743.000000	 94.525476 
742.000000	 94.635885 
741.000000	 94.748412 
740.000000	 94.856637 
739.000000	 94.946130 
738.000000	 95.017819 
737.000000	 95.086081 
736.000000	 95.157340 
735.000000	 95.226116 
734.000000	 95.290396 
733.000000	 95.355199 
732.000000	 95.420561 
731.000000	 95.479535 
730.000000	 95.528508 
729.000000	 95.567831 
728.000000	 95.595156 
727.000000	 95.610644 
726.000000	 95.625453 
725.000000	 95.652791 
724.000000	 95.691566 
723.000000	 95.729648 
722.000000	 95.761321 
721.000000	 95.791920 
720.000000	 95.826865 
719.000000	 95.863895 
718.000000	 95.896020 
717.000000	 95.916174 
716.000000	 95.922378 
715.000000	 95.925711 
714.000000	 95.944656 
713.000000	 95.981207 
712.000000	 96.012903 
711.000000	 96.019352 
710.000000	 96.005861 
709.000000	 95.988640 
708.000000	 95.970797 
707.000000	 95.950566 
706.000000	 95.938852 
705.000000	 95.946933 
704.000000	 95.963228 
703.000000	 95.962359 
702.000000	 95.936520 
701.000000	 95.901614 
700.000000	 95.874599 
699.000000	 95.861375 
698.000000	 95.860909 
697.000000	 95.865264 
696.000000	 95.859204 
695.000000	 95.833444 
694.000000	 95.797766 
693.000000	 95.767507 
692.000000	 95.741005 
691.000000	 95.705833 
690.000000	 95.659927 
689.000000	 95.611863 
688.000000	 95.564905 
687.000000	 95.516199 
686.000000	 95.469188 
685.000000	 95.429779 
684.000000	 95.394438 
683.000000	 95.356770 
682.000000	 95.318494 
681.000000	 95.281687 
680.000000	 95.238231 
679.000000	 95.179546 
678.000000	 95.107339 
677.000000	 95.022608 
676.000000	 94.915165 
675.000000	 94.781394 
674.000000	 94.629685 
673.000000	 94.470059 
672.000000	 94.313914 
671.000000	 94.174161 
670.000000	 94.034056 
669.000000	 93.807243 
668.000000	 93.420000 
667.000000	 92.960899 
666.000000	 92.538494 
665.000000	 92.133426 
664.000000	 91.654825 
663.000000	 91.020563 
662.000000	 90.195827 
661.000000	 89.163488 
660.000000	 87.887633 
659.000000	 86.345731 
658.000000	 84.533816 
657.000000	 82.405808 
656.000000	 79.903738 
655.000000	 77.081756 
654.000000	 74.084535 
653.000000	 71.019609 
652.000000	 68.006224 
651.000000	 65.266750 
650.000000	 62.960844 

