PE IR                   SPECTRUM    ASCII       PEDS        1.60        
  -1
~SP.SP
18/04/18
12:43:03.00
18/04/18
12:43:03.00
Claudia

650.000000
16









SPECTRUM 100,CPU32 MAIN 00.02.8200 12-DECEMBER-2006 10:00:00
MIR TGS
MIR
OPTKBR
78890
0.200000

4.000000
STRONG
RATIO
SPECTRUM
MAGNITUDE
UNIVERSAL ATR
DOUBLE

COMBINED


0


#HDR
-1
-1
#GR
CM-1
%T
0.00002384185791015625
0.0
4000.000000
-1.000000
3351
8
98.183500
29.588569
#DATA
4000.000000	97.801581 
3999.000000	97.802273 
3998.000000	97.804443 
3997.000000	97.810025 
3996.000000	97.818102 
3995.000000	97.840918 
3994.000000	97.845712 
3993.000000	97.845348 
3992.000000	97.841524 
3991.000000	97.836673 
3990.000000	97.832884 
3989.000000	97.831143 
3988.000000	97.831088 
3987.000000	97.831508 
3986.000000	97.831056 
3985.000000	97.828714 
3984.000000	97.824189 
3983.000000	97.818128 
3982.000000	97.811845 
3981.000000	97.806827 
3980.000000	97.804516 
3979.000000	97.806154 
3978.000000	97.811919 
3977.000000	97.819872 
3976.000000	97.826707 
3975.000000	97.830474 
3974.000000	97.832236 
3973.000000	97.834441 
3972.000000	97.837920 
3971.000000	97.841267 
3970.000000	97.842839 
3969.000000	97.842635 
3968.000000	97.842325 
3967.000000	97.843678 
3966.000000	97.846950 
3965.000000	97.850666 
3964.000000	97.853094 
3963.000000	97.854220 
3962.000000	97.856041 
3961.000000	97.860424 
3960.000000	97.866910 
3959.000000	97.873232 
3958.000000	97.877587 
3957.000000	97.879657 
3956.000000	97.880082 
3955.000000	97.879397 
3954.000000	97.877769 
3953.000000	97.875138 
3952.000000	97.871439 
3951.000000	97.867188 
3950.000000	97.863500 
3949.000000	97.861599 
3948.000000	97.862305 
3947.000000	97.866130 
3946.000000	97.873338 
3945.000000	97.883159 
3944.000000	97.893195 
3943.000000	97.900077 
3942.000000	97.901744 
3941.000000	97.899180 
3940.000000	97.895089 
3939.000000	97.891240 
3938.000000	97.888054 
3937.000000	97.885809 
3936.000000	97.885550 
3935.000000	97.887926 
3934.000000	97.891931 
3933.000000	97.895350 
3932.000000	97.896609 
3931.000000	97.896023 
3930.000000	97.894813 
3929.000000	97.893819 
3928.000000	97.893194 
3927.000000	97.892819 
3926.000000	97.893137 
3925.000000	97.894312 
3924.000000	97.894943 
3923.000000	97.893105 
3922.000000	97.887818 
3921.000000	97.879851 
3920.000000	97.871405 
3919.000000	97.864870 
3918.000000	97.861251 
3917.000000	97.859814 
3916.000000	97.859851 
3915.000000	97.861817 
3914.000000	97.865978 
3913.000000	97.870884 
3912.000000	97.874283 
3911.000000	97.875638 
3910.000000	97.876787 
3909.000000	97.879640 
3908.000000	97.885078 
3907.000000	97.892716 
3906.000000	97.901296 
3905.000000	97.907978 
3904.000000	97.908574 
3903.000000	97.902105 
3902.000000	97.893911 
3901.000000	97.890919 
3900.000000	97.895468 
3899.000000	97.904107 
3898.000000	97.912282 
3897.000000	97.918438 
3896.000000	97.922844 
3895.000000	97.926025 
3894.000000	97.929130 
3893.000000	97.932686 
3892.000000	97.934135 
3891.000000	97.928383 
3890.000000	97.915770 
3889.000000	97.903009 
3888.000000	97.895953 
3887.000000	97.895768 
3886.000000	97.899726 
3885.000000	97.903394 
3884.000000	97.905450 
3883.000000	97.908213 
3882.000000	97.913495 
3881.000000	97.920556 
3880.000000	97.926280 
3879.000000	97.927523 
3878.000000	97.925363 
3877.000000	97.922867 
3876.000000	97.921827 
3875.000000	97.922027 
3874.000000	97.921167 
3873.000000	97.917278 
3872.000000	97.912772 
3871.000000	97.913203 
3870.000000	97.920605 
3869.000000	97.931551 
3868.000000	97.941749 
3867.000000	97.947097 
3866.000000	97.944688 
3865.000000	97.937160 
3864.000000	97.931271 
3863.000000	97.930468 
3862.000000	97.930815 
3861.000000	97.926866 
3860.000000	97.919416 
3859.000000	97.914426 
3858.000000	97.916479 
3857.000000	97.924433 
3856.000000	97.933774 
3855.000000	97.941353 
3854.000000	97.941467 
3853.000000	97.925800 
3852.000000	97.902908 
3851.000000	97.893130 
3850.000000	97.900104 
3849.000000	97.913597 
3848.000000	97.923563 
3847.000000	97.926980 
3846.000000	97.926199 
3845.000000	97.924110 
3844.000000	97.922098 
3843.000000	97.921177 
3842.000000	97.921852 
3841.000000	97.924089 
3840.000000	97.927888 
3839.000000	97.932420 
3838.000000	97.936183 
3837.000000	97.938543 
3836.000000	97.941213 
3835.000000	97.946385 
3834.000000	97.953589 
3833.000000	97.960274 
3832.000000	97.963761 
3831.000000	97.962624 
3830.000000	97.957749 
3829.000000	97.950909 
3828.000000	97.943405 
3827.000000	97.937055 
3826.000000	97.934139 
3825.000000	97.935717 
3824.000000	97.940539 
3823.000000	97.946134 
3822.000000	97.950149 
3821.000000	97.949284 
3820.000000	97.943707 
3819.000000	97.940741 
3818.000000	97.945088 
3817.000000	97.953491 
3816.000000	97.959561 
3815.000000	97.960788 
3814.000000	97.960569 
3813.000000	97.961719 
3812.000000	97.962197 
3811.000000	97.959551 
3810.000000	97.954066 
3809.000000	97.947419 
3808.000000	97.940087 
3807.000000	97.931070 
3806.000000	97.920482 
3805.000000	97.911505 
3804.000000	97.906261 
3803.000000	97.905272 
3802.000000	97.908776 
3801.000000	97.913456 
3800.000000	97.917889 
3799.000000	97.925708 
3798.000000	97.938014 
3797.000000	97.951795 
3796.000000	97.962824 
3795.000000	97.968493 
3794.000000	97.969463 
3793.000000	97.969022 
3792.000000	97.970661 
3791.000000	97.975860 
3790.000000	97.981971 
3789.000000	97.983443 
3788.000000	97.977375 
3787.000000	97.967487 
3786.000000	97.961392 
3785.000000	97.963078 
3784.000000	97.968733 
3783.000000	97.970879 
3782.000000	97.965716 
3781.000000	97.956313 
3780.000000	97.949801 
3779.000000	97.950732 
3778.000000	97.957516 
3777.000000	97.965565 
3776.000000	97.971486 
3775.000000	97.974581 
3774.000000	97.976036 
3773.000000	97.976815 
3772.000000	97.976906 
3771.000000	97.976146 
3770.000000	97.974487 
3769.000000	97.972203 
3768.000000	97.971225 
3767.000000	97.972800 
3766.000000	97.975356 
3765.000000	97.975722 
3764.000000	97.972070 
3763.000000	97.965495 
3762.000000	97.958704 
3761.000000	97.954716 
3760.000000	97.955025 
3759.000000	97.957427 
3758.000000	97.957384 
3757.000000	97.952266 
3756.000000	97.943348 
3755.000000	97.933423 
3754.000000	97.924513 
3753.000000	97.918038 
3752.000000	97.914955 
3751.000000	97.912697 
3750.000000	97.906467 
3749.000000	97.897343 
3748.000000	97.890778 
3747.000000	97.887270 
3746.000000	97.882749 
3745.000000	97.873136 
3744.000000	97.856564 
3743.000000	97.839796 
3742.000000	97.832610 
3741.000000	97.832928 
3740.000000	97.831929 
3739.000000	97.824978 
3738.000000	97.815737 
3737.000000	97.812254 
3736.000000	97.820811 
3735.000000	97.839538 
3734.000000	97.856867 
3733.000000	97.860168 
3732.000000	97.845999 
3731.000000	97.822670 
3730.000000	97.802666 
3729.000000	97.792772 
3728.000000	97.793028 
3727.000000	97.800177 
3726.000000	97.809610 
3725.000000	97.817669 
3724.000000	97.823917 
3723.000000	97.831007 
3722.000000	97.841367 
3721.000000	97.856522 
3720.000000	97.876985 
3719.000000	97.901184 
3718.000000	97.925427 
3717.000000	97.944153 
3716.000000	97.952067 
3715.000000	97.945612 
3714.000000	97.925207 
3713.000000	97.898796 
3712.000000	97.878984 
3711.000000	97.872910 
3710.000000	97.877286 
3709.000000	97.883611 
3708.000000	97.886520 
3707.000000	97.885627 
3706.000000	97.884175 
3705.000000	97.886737 
3704.000000	97.896320 
3703.000000	97.912281 
3702.000000	97.927955 
3701.000000	97.934862 
3700.000000	97.930894 
3699.000000	97.922080 
3698.000000	97.915886 
3697.000000	97.915346 
3696.000000	97.917777 
3695.000000	97.918671 
3694.000000	97.916704 
3693.000000	97.915536 
3692.000000	97.921933 
3691.000000	97.940149 
3690.000000	97.964953 
3689.000000	97.981347 
3688.000000	97.980599 
3687.000000	97.970550 
3686.000000	97.963810 
3685.000000	97.965308 
3684.000000	97.972439 
3683.000000	97.980876 
3682.000000	97.988014 
3681.000000	97.992902 
3680.000000	97.994484 
3679.000000	97.991566 
3678.000000	97.985003 
3677.000000	97.981798 
3676.000000	97.988688 
3675.000000	98.000342 
3674.000000	98.009068 
3673.000000	98.015524 
3672.000000	98.020806 
3671.000000	98.026515 
3670.000000	98.034201 
3669.000000	98.041268 
3668.000000	98.046249 
3667.000000	98.050466 
3666.000000	98.053887 
3665.000000	98.055007 
3664.000000	98.053014 
3663.000000	98.048820 
3662.000000	98.044998 
3661.000000	98.043594 
3660.000000	98.044524 
3659.000000	98.045993 
3658.000000	98.046500 
3657.000000	98.046287 
3656.000000	98.045886 
3655.000000	98.046418 
3654.000000	98.048640 
3653.000000	98.050092 
3652.000000	98.047231 
3651.000000	98.041860 
3650.000000	98.038888 
3649.000000	98.037607 
3648.000000	98.033904 
3647.000000	98.027942 
3646.000000	98.022666 
3645.000000	98.019427 
3644.000000	98.016464 
3643.000000	98.009746 
3642.000000	97.996855 
3641.000000	97.979686 
3640.000000	97.964661 
3639.000000	97.958286 
3638.000000	97.962033 
3637.000000	97.971079 
3636.000000	97.977678 
3635.000000	97.976780 
3634.000000	97.969114 
3633.000000	97.959883 
3632.000000	97.953664 
3631.000000	97.951522 
3630.000000	97.952452 
3629.000000	97.951729 
3628.000000	97.942647 
3627.000000	97.929512 
3626.000000	97.922539 
3625.000000	97.924747 
3624.000000	97.934245 
3623.000000	97.949435 
3622.000000	97.969034 
3621.000000	97.989896 
3620.000000	98.005329 
3619.000000	98.007701 
3618.000000	97.997219 
3617.000000	97.985192 
3616.000000	97.984232 
3615.000000	97.998581 
3614.000000	98.021264 
3613.000000	98.039020 
3612.000000	98.041950 
3611.000000	98.028942 
3610.000000	98.005730 
3609.000000	97.981221 
3608.000000	97.963507 
3607.000000	97.955579 
3606.000000	97.955160 
3605.000000	97.957663 
3604.000000	97.959529 
3603.000000	97.960580 
3602.000000	97.963286 
3601.000000	97.970243 
3600.000000	97.980195 
3599.000000	97.988259 
3598.000000	97.990512 
3597.000000	97.988186 
3596.000000	97.986355 
3595.000000	97.988921 
3594.000000	97.993726 
3593.000000	97.995611 
3592.000000	97.993252 
3591.000000	97.990298 
3590.000000	97.992661 
3589.000000	98.004788 
3588.000000	98.024778 
3587.000000	98.042395 
3586.000000	98.048979 
3585.000000	98.046005 
3584.000000	98.040726 
3583.000000	98.038049 
3582.000000	98.038493 
3581.000000	98.040258 
3580.000000	98.041874 
3579.000000	98.044305 
3578.000000	98.049984 
3577.000000	98.059972 
3576.000000	98.071326 
3575.000000	98.078654 
3574.000000	98.078829 
3573.000000	98.073461 
3572.000000	98.066857 
3571.000000	98.061220 
3570.000000	98.055791 
3569.000000	98.050664 
3568.000000	98.049529 
3567.000000	98.054165 
3566.000000	98.060256 
3565.000000	98.063337 
3564.000000	98.063705 
3563.000000	98.063596 
3562.000000	98.064010 
3561.000000	98.064826 
3560.000000	98.066959 
3559.000000	98.072197 
3558.000000	98.080822 
3557.000000	98.089940 
3556.000000	98.095507 
3555.000000	98.095824 
3554.000000	98.093418 
3553.000000	98.092195 
3552.000000	98.093171 
3551.000000	98.093492 
3550.000000	98.090162 
3549.000000	98.083681 
3548.000000	98.078144 
3547.000000	98.076974 
3546.000000	98.079252 
3545.000000	98.081523 
3544.000000	98.083176 
3543.000000	98.086943 
3542.000000	98.093989 
3541.000000	98.101398 
3540.000000	98.105867 
3539.000000	98.107750 
3538.000000	98.109812 
3537.000000	98.112500 
3536.000000	98.112550 
3535.000000	98.107167 
3534.000000	98.097681 
3533.000000	98.088614 
3532.000000	98.083646 
3531.000000	98.083483 
3530.000000	98.086021 
3529.000000	98.087790 
3528.000000	98.085791 
3527.000000	98.079535 
3526.000000	98.071948 
3525.000000	98.067708 
3524.000000	98.069667 
3523.000000	98.076346 
3522.000000	98.083624 
3521.000000	98.088860 
3520.000000	98.093050 
3519.000000	98.098724 
3518.000000	98.106443 
3517.000000	98.113584 
3516.000000	98.116563 
3515.000000	98.114404 
3514.000000	98.109721 
3513.000000	98.106183 
3512.000000	98.104871 
3511.000000	98.103494 
3510.000000	98.099205 
3509.000000	98.091897 
3508.000000	98.084193 
3507.000000	98.078781 
3506.000000	98.076711 
3505.000000	98.077714 
3504.000000	98.080589 
3503.000000	98.082789 
3502.000000	98.081460 
3501.000000	98.076123 
3500.000000	98.069329 
3499.000000	98.064149 
3498.000000	98.061889 
3497.000000	98.062757 
3496.000000	98.067279 
3495.000000	98.075445 
3494.000000	98.084763 
3493.000000	98.090945 
3492.000000	98.091787 
3491.000000	98.089816 
3490.000000	98.090196 
3489.000000	98.095524 
3488.000000	98.102740 
3487.000000	98.105607 
3486.000000	98.100569 
3485.000000	98.090279 
3484.000000	98.081435 
3483.000000	98.079526 
3482.000000	98.084846 
3481.000000	98.092717 
3480.000000	98.097116 
3479.000000	98.094469 
3478.000000	98.085249 
3477.000000	98.073129 
3476.000000	98.062805 
3475.000000	98.057937 
3474.000000	98.060063 
3473.000000	98.067987 
3472.000000	98.077538 
3471.000000	98.083320 
3470.000000	98.082792 
3469.000000	98.078763 
3468.000000	98.076497 
3467.000000	98.077907 
3466.000000	98.079881 
3465.000000	98.078833 
3464.000000	98.075394 
3463.000000	98.073632 
3462.000000	98.076095 
3461.000000	98.080717 
3460.000000	98.082765 
3459.000000	98.079730 
3458.000000	98.074536 
3457.000000	98.073474 
3456.000000	98.080302 
3455.000000	98.092172 
3454.000000	98.101873 
3453.000000	98.104555 
3452.000000	98.101370 
3451.000000	98.097061 
3450.000000	98.095010 
3449.000000	98.095462 
3448.000000	98.097667 
3447.000000	98.102232 
3446.000000	98.110393 
3445.000000	98.121071 
3444.000000	98.129808 
3443.000000	98.131946 
3442.000000	98.127398 
3441.000000	98.121159 
3440.000000	98.118124 
3439.000000	98.118488 
3438.000000	98.118918 
3437.000000	98.117069 
3436.000000	98.113560 
3435.000000	98.110433 
3434.000000	98.109499 
3433.000000	98.112073 
3432.000000	98.117954 
3431.000000	98.124342 
3430.000000	98.127450 
3429.000000	98.126315 
3428.000000	98.124021 
3427.000000	98.124151 
3426.000000	98.126843 
3425.000000	98.129305 
3424.000000	98.129811 
3423.000000	98.130163 
3422.000000	98.133745 
3421.000000	98.141076 
3420.000000	98.147844 
3419.000000	98.148400 
3418.000000	98.141737 
3417.000000	98.133264 
3416.000000	98.129598 
3415.000000	98.132082 
3414.000000	98.136616 
3413.000000	98.139473 
3412.000000	98.141493 
3411.000000	98.145974 
3410.000000	98.154184 
3409.000000	98.163970 
3408.000000	98.171542 
3407.000000	98.173719 
3406.000000	98.169837 
3405.000000	98.162858 
3404.000000	98.157943 
3403.000000	98.158325 
3402.000000	98.162334 
3401.000000	98.165141 
3400.000000	98.163196 
3399.000000	98.156710 
3398.000000	98.148704 
3397.000000	98.142653 
3396.000000	98.140737 
3395.000000	98.143309 
3394.000000	98.149463 
3393.000000	98.157771 
3392.000000	98.166404 
3391.000000	98.173196 
3390.000000	98.176697 
3389.000000	98.177260 
3388.000000	98.176375 
3387.000000	98.175002 
3386.000000	98.173394 
3385.000000	98.172195 
3384.000000	98.172292 
3383.000000	98.173496 
3382.000000	98.174802 
3381.000000	98.176239 
3380.000000	98.178739 
3379.000000	98.181878 
3378.000000	98.183500 
3377.000000	98.182465 
3376.000000	98.180004 
3375.000000	98.177219 
3374.000000	98.173106 
3373.000000	98.166746 
3372.000000	98.160164 
3371.000000	98.156903 
3370.000000	98.158053 
3369.000000	98.161128 
3368.000000	98.162845 
3367.000000	98.162015 
3366.000000	98.159940 
3365.000000	98.158860 
3364.000000	98.159889 
3363.000000	98.161998 
3362.000000	98.163351 
3361.000000	98.163911 
3360.000000	98.165786 
3359.000000	98.170199 
3358.000000	98.174823 
3357.000000	98.175412 
3356.000000	98.170108 
3355.000000	98.161469 
3354.000000	98.154223 
3353.000000	98.151538 
3352.000000	98.153335 
3351.000000	98.157361 
3350.000000	98.161287 
3349.000000	98.163669 
3348.000000	98.163592 
3347.000000	98.160577 
3346.000000	98.155514 
3345.000000	98.150789 
3344.000000	98.148209 
3343.000000	98.147069 
3342.000000	98.145146 
3341.000000	98.141311 
3340.000000	98.136098 
3339.000000	98.130170 
3338.000000	98.123691 
3337.000000	98.117054 
3336.000000	98.110738 
3335.000000	98.104466 
3334.000000	98.098092 
3333.000000	98.093279 
3332.000000	98.092378 
3331.000000	98.095074 
3330.000000	98.097787 
3329.000000	98.097210 
3328.000000	98.093222 
3327.000000	98.087713 
3326.000000	98.081909 
3325.000000	98.075766 
3324.000000	98.068702 
3323.000000	98.060075 
3322.000000	98.049810 
3321.000000	98.039364 
3320.000000	98.031209 
3319.000000	98.026613 
3318.000000	98.024367 
3317.000000	98.021879 
3316.000000	98.016619 
3315.000000	98.006688 
3314.000000	97.991685 
3313.000000	97.973833 
3312.000000	97.957019 
3311.000000	97.943687 
3310.000000	97.933023 
3309.000000	97.922236 
3308.000000	97.908606 
3307.000000	97.890365 
3306.000000	97.867273 
3305.000000	97.841209 
3304.000000	97.815214 
3303.000000	97.791237 
3302.000000	97.769333 
3301.000000	97.748801 
3300.000000	97.728663 
3299.000000	97.706951 
3298.000000	97.681447 
3297.000000	97.652234 
3296.000000	97.622342 
3295.000000	97.595038 
3294.000000	97.571108 
3293.000000	97.548974 
3292.000000	97.526413 
3291.000000	97.502029 
3290.000000	97.476344 
3289.000000	97.451787 
3288.000000	97.430532 
3287.000000	97.412277 
3286.000000	97.395265 
3285.000000	97.379063 
3284.000000	97.364297 
3283.000000	97.349710 
3282.000000	97.332233 
3281.000000	97.311112 
3280.000000	97.290020 
3279.000000	97.273562 
3278.000000	97.262947 
3277.000000	97.256020 
3276.000000	97.250140 
3275.000000	97.243904 
3274.000000	97.236970 
3273.000000	97.229117 
3272.000000	97.219012 
3271.000000	97.204012 
3270.000000	97.182471 
3269.000000	97.156318 
3268.000000	97.129770 
3267.000000	97.105393 
3266.000000	97.083121 
3265.000000	97.062970 
3264.000000	97.045941 
3263.000000	97.031414 
3262.000000	97.016431 
3261.000000	96.999101 
3260.000000	96.980705 
3259.000000	96.962864 
3258.000000	96.944765 
3257.000000	96.925029 
3256.000000	96.904339 
3255.000000	96.883648 
3254.000000	96.860921 
3253.000000	96.832401 
3252.000000	96.797241 
3251.000000	96.759378 
3250.000000	96.724518 
3249.000000	96.695979 
3248.000000	96.672966 
3247.000000	96.651705 
3246.000000	96.628222 
3245.000000	96.600858 
3244.000000	96.570794 
3243.000000	96.540706 
3242.000000	96.512962 
3241.000000	96.487929 
3240.000000	96.462841 
3239.000000	96.433250 
3238.000000	96.397390 
3237.000000	96.358742 
3236.000000	96.322619 
3235.000000	96.290491 
3234.000000	96.259336 
3233.000000	96.225876 
3232.000000	96.189178 
3231.000000	96.149760 
3230.000000	96.109031 
3229.000000	96.069801 
3228.000000	96.034476 
3227.000000	96.002048 
3226.000000	95.969339 
3225.000000	95.935604 
3224.000000	95.903129 
3223.000000	95.872630 
3222.000000	95.841043 
3221.000000	95.805280 
3220.000000	95.765877 
3219.000000	95.725641 
3218.000000	95.686842 
3217.000000	95.650736 
3216.000000	95.617490 
3215.000000	95.585181 
3214.000000	95.550877 
3213.000000	95.513913 
3212.000000	95.476363 
3211.000000	95.439777 
3210.000000	95.403836 
3209.000000	95.368728 
3208.000000	95.335735 
3207.000000	95.304092 
3206.000000	95.270317 
3205.000000	95.232379 
3204.000000	95.191690 
3203.000000	95.148881 
3202.000000	95.100596 
3201.000000	95.043704 
3200.000000	94.981091 
3199.000000	94.920052 
3198.000000	94.865343 
3197.000000	94.815612 
3196.000000	94.765884 
3195.000000	94.711690 
3194.000000	94.651467 
3193.000000	94.586786 
3192.000000	94.520303 
3191.000000	94.452811 
3190.000000	94.382812 
3189.000000	94.309092 
3188.000000	94.232056 
3187.000000	94.151856 
3186.000000	94.067162 
3185.000000	93.977208 
3184.000000	93.883936 
3183.000000	93.790848 
3182.000000	93.700617 
3181.000000	93.614146 
3180.000000	93.530256 
3179.000000	93.445441 
3178.000000	93.355730 
3177.000000	93.260153 
3176.000000	93.161263 
3175.000000	93.061471 
3174.000000	92.960341 
3173.000000	92.856452 
3172.000000	92.750562 
3171.000000	92.645903 
3170.000000	92.546019 
3169.000000	92.452577 
3168.000000	92.364058 
3167.000000	92.276530 
3166.000000	92.187217 
3165.000000	92.097294 
3164.000000	92.009544 
3163.000000	91.923599 
3162.000000	91.835784 
3161.000000	91.743511 
3160.000000	91.646983 
3159.000000	91.546464 
3158.000000	91.441418 
3157.000000	91.333563 
3156.000000	91.227096 
3155.000000	91.123167 
3154.000000	91.016259 
3153.000000	90.898762 
3152.000000	90.768420 
3151.000000	90.629849 
3150.000000	90.489952 
3149.000000	90.353286 
3148.000000	90.220575 
3147.000000	90.089845 
3146.000000	89.959132 
3145.000000	89.828772 
3144.000000	89.700655 
3143.000000	89.575337 
3142.000000	89.450949 
3141.000000	89.324627 
3140.000000	89.193392 
3139.000000	89.054213 
3138.000000	88.905864 
3137.000000	88.751273 
3136.000000	88.595784 
3135.000000	88.442445 
3134.000000	88.290657 
3133.000000	88.138876 
3132.000000	87.985496 
3131.000000	87.826859 
3130.000000	87.658193 
3129.000000	87.478242 
3128.000000	87.290429 
3127.000000	87.098257 
3126.000000	86.902201 
3125.000000	86.702144 
3124.000000	86.499295 
3123.000000	86.292894 
3122.000000	86.077501 
3121.000000	85.846845 
3120.000000	85.599527 
3119.000000	85.338856 
3118.000000	85.067791 
3117.000000	84.785696 
3116.000000	84.489537 
3115.000000	84.177232 
3114.000000	83.850430 
3113.000000	83.514539 
3112.000000	83.175007 
3111.000000	82.833093 
3110.000000	82.486005 
3109.000000	82.130931 
3108.000000	81.767576 
3107.000000	81.397591 
3106.000000	81.024123 
3105.000000	80.652066 
3104.000000	80.285978 
3103.000000	79.926759 
3102.000000	79.572332 
3101.000000	79.221850 
3100.000000	78.876754 
3099.000000	78.537064 
3098.000000	78.199767 
3097.000000	77.862605 
3096.000000	77.527571 
3095.000000	77.199024 
3094.000000	76.879758 
3093.000000	76.569989 
3092.000000	76.268716 
3091.000000	75.975136 
3090.000000	75.689975 
3089.000000	75.415935 
3088.000000	75.155183 
3087.000000	74.905963 
3086.000000	74.663495 
3085.000000	74.425051 
3084.000000	74.192656 
3083.000000	73.970385 
3082.000000	73.760898 
3081.000000	73.565150 
3080.000000	73.383406 
3079.000000	73.215032 
3078.000000	73.058367 
3077.000000	72.912019 
3076.000000	72.776000 
3075.000000	72.651567 
3074.000000	72.540627 
3073.000000	72.445067 
3072.000000	72.365471 
3071.000000	72.300404 
3070.000000	72.247483 
3069.000000	72.204564 
3068.000000	72.169402 
3067.000000	72.139746 
3066.000000	72.115464 
3065.000000	72.099421 
3064.000000	72.094314 
3063.000000	72.099657 
3062.000000	72.113828 
3061.000000	72.137630 
3060.000000	72.173113 
3059.000000	72.219703 
3058.000000	72.274654 
3057.000000	72.337254 
3056.000000	72.409744 
3055.000000	72.493732 
3054.000000	72.588109 
3053.000000	72.690601 
3052.000000	72.798534 
3051.000000	72.907507 
3050.000000	73.012143 
3049.000000	73.109635 
3048.000000	73.201003 
3047.000000	73.287705 
3046.000000	73.368430 
3045.000000	73.440036 
3044.000000	73.500330 
3043.000000	73.549041 
3042.000000	73.587211 
3041.000000	73.616590 
3040.000000	73.639036 
3039.000000	73.655530 
3038.000000	73.665471 
3037.000000	73.666668 
3036.000000	73.656307 
3035.000000	73.633387 
3034.000000	73.601270 
3033.000000	73.566630 
3032.000000	73.534281 
3031.000000	73.503675 
3030.000000	73.471782 
3029.000000	73.438449 
3028.000000	73.407066 
3027.000000	73.380713 
3026.000000	73.359585 
3025.000000	73.341883 
3024.000000	73.325620 
3023.000000	73.309641 
3022.000000	73.294010 
3021.000000	73.279053 
3020.000000	73.263501 
3019.000000	73.245106 
3018.000000	73.224500 
3017.000000	73.206815 
3016.000000	73.197192 
3015.000000	73.195679 
3014.000000	73.198341 
3013.000000	73.201850 
3012.000000	73.204751 
3011.000000	73.205782 
3010.000000	73.204056 
3009.000000	73.200050 
3008.000000	73.193099 
3007.000000	73.177227 
3006.000000	73.140743 
3005.000000	73.069714 
3004.000000	72.953086 
3003.000000	72.791644 
3002.000000	72.610339 
3001.000000	72.461219 
3000.000000	72.402949 
2999.000000	72.466294 
2998.000000	72.633319 
2997.000000	72.846931 
2996.000000	73.035936 
2995.000000	73.132954 
2994.000000	73.082022 
2993.000000	72.850115 
2992.000000	72.448626 
2991.000000	71.946677 
2990.000000	71.454982 
2989.000000	71.080403 
2988.000000	70.881236 
2987.000000	70.856690 
2986.000000	70.971360 
2985.000000	71.185090 
2984.000000	71.462527 
2983.000000	71.769289 
2982.000000	72.073891 
2981.000000	72.356941 
2980.000000	72.614305 
2979.000000	72.849658 
2978.000000	73.066905 
2977.000000	73.269302 
2976.000000	73.460806 
2975.000000	73.645514 
2974.000000	73.828382 
2973.000000	74.019027 
2972.000000	74.232719 
2971.000000	74.483475 
2970.000000	74.773062 
2969.000000	75.085407 
2968.000000	75.392281 
2967.000000	75.667948 
2966.000000	75.902679 
2965.000000	76.104200 
2964.000000	76.286429 
2963.000000	76.456962 
2962.000000	76.614309 
2961.000000	76.753527 
2960.000000	76.870468 
2959.000000	76.960791 
2958.000000	77.017835 
2957.000000	77.033176 
2956.000000	76.999579 
2955.000000	76.914802 
2954.000000	76.784531 
2953.000000	76.621150 
2952.000000	76.438173 
2951.000000	76.245588 
2950.000000	76.050206 
2949.000000	75.857148 
2948.000000	75.668269 
2947.000000	75.481023 
2946.000000	75.292377 
2945.000000	75.103651 
2944.000000	74.919538 
2943.000000	74.743685 
2942.000000	74.578069 
2941.000000	74.426041 
2940.000000	74.293020 
2939.000000	74.184015 
2938.000000	74.102171 
2937.000000	74.048648 
2936.000000	74.021720 
2935.000000	74.016976 
2934.000000	74.030942 
2933.000000	74.063554 
2932.000000	74.115173 
2931.000000	74.182970 
2930.000000	74.263419 
2929.000000	74.356545 
2928.000000	74.463784 
2927.000000	74.582498 
2926.000000	74.706911 
2925.000000	74.834445 
2924.000000	74.967147 
2923.000000	75.106426 
2922.000000	75.250277 
2921.000000	75.396683 
2920.000000	75.546376 
2919.000000	75.700694 
2918.000000	75.859025 
2917.000000	76.019530 
2916.000000	76.180505 
2915.000000	76.340157 
2914.000000	76.496658 
2913.000000	76.649201 
2912.000000	76.797979 
2911.000000	76.943063 
2910.000000	77.084417 
2909.000000	77.222531 
2908.000000	77.357133 
2907.000000	77.485609 
2906.000000	77.604608 
2905.000000	77.713285 
2904.000000	77.813073 
2903.000000	77.904562 
2902.000000	77.986660 
2901.000000	78.059261 
2900.000000	78.123563 
2899.000000	78.180386 
2898.000000	78.229376 
2897.000000	78.270942 
2896.000000	78.307208 
2895.000000	78.340225 
2894.000000	78.370363 
2893.000000	78.396844 
2892.000000	78.418972 
2891.000000	78.436854 
2890.000000	78.451874 
2889.000000	78.466022 
2888.000000	78.479636 
2887.000000	78.490454 
2886.000000	78.496460 
2885.000000	78.499374 
2884.000000	78.504000 
2883.000000	78.514795 
2882.000000	78.534327 
2881.000000	78.563577 
2880.000000	78.601147 
2879.000000	78.642656 
2878.000000	78.683567 
2877.000000	78.723082 
2876.000000	78.763651 
2875.000000	78.806942 
2874.000000	78.852028 
2873.000000	78.896948 
2872.000000	78.939635 
2871.000000	78.977380 
2870.000000	79.007778 
2869.000000	79.030941 
2868.000000	79.049236 
2867.000000	79.064581 
2866.000000	79.077331 
2865.000000	79.087688 
2864.000000	79.096494 
2863.000000	79.104369 
2862.000000	79.111262 
2861.000000	79.116627 
2860.000000	79.119062 
2859.000000	79.116796 
2858.000000	79.110361 
2857.000000	79.103990 
2856.000000	79.102571 
2855.000000	79.107750 
2854.000000	79.118537 
2853.000000	79.134183 
2852.000000	79.154009 
2851.000000	79.175514 
2850.000000	79.195809 
2849.000000	79.214958 
2848.000000	79.235350 
2847.000000	79.257702 
2846.000000	79.280089 
2845.000000	79.301152 
2844.000000	79.321828 
2843.000000	79.342959 
2842.000000	79.362658 
2841.000000	79.376776 
2840.000000	79.381384 
2839.000000	79.375213 
2838.000000	79.360639 
2837.000000	79.341634 
2836.000000	79.319374 
2835.000000	79.290421 
2834.000000	79.250263 
2833.000000	79.197414 
2832.000000	79.132662 
2831.000000	79.056193 
2830.000000	78.968238 
2829.000000	78.871322 
2828.000000	78.768615 
2827.000000	78.660203 
2826.000000	78.543822 
2825.000000	78.419486 
2824.000000	78.290969 
2823.000000	78.162559 
2822.000000	78.036621 
2821.000000	77.914644 
2820.000000	77.798461 
2819.000000	77.689588 
2818.000000	77.588507 
2817.000000	77.494796 
2816.000000	77.407296 
2815.000000	77.324994 
2814.000000	77.249084 
2813.000000	77.183250 
2812.000000	77.130303 
2811.000000	77.089616 
2810.000000	77.059483 
2809.000000	77.040824 
2808.000000	77.036471 
2807.000000	77.047939 
2806.000000	77.075097 
2805.000000	77.117697 
2804.000000	77.174355 
2803.000000	77.240502 
2802.000000	77.309926 
2801.000000	77.378067 
2800.000000	77.441675 
2799.000000	77.496042 
2798.000000	77.535570 
2797.000000	77.557150 
2796.000000	77.560914 
2795.000000	77.547834 
2794.000000	77.518974 
2793.000000	77.476973 
2792.000000	77.425835 
2791.000000	77.369014 
2790.000000	77.309317 
2789.000000	77.250232 
2788.000000	77.194953 
2787.000000	77.144269 
2786.000000	77.097679 
2785.000000	77.056667 
2784.000000	77.024834 
2783.000000	77.004806 
2782.000000	76.996733 
2781.000000	76.999632 
2780.000000	77.012380 
2779.000000	77.033686 
2778.000000	77.062908 
2777.000000	77.100514 
2776.000000	77.146133 
2775.000000	77.196868 
2774.000000	77.249543 
2773.000000	77.303892 
2772.000000	77.361409 
2771.000000	77.421778 
2770.000000	77.482897 
2769.000000	77.543941 
2768.000000	77.605678 
2767.000000	77.667733 
2766.000000	77.727806 
2765.000000	77.783626 
2764.000000	77.833469 
2763.000000	77.874848 
2762.000000	77.905161 
2761.000000	77.924181 
2760.000000	77.934069 
2759.000000	77.936638 
2758.000000	77.932067 
2757.000000	77.920195 
2756.000000	77.901401 
2755.000000	77.876548 
2754.000000	77.847784 
2753.000000	77.818899 
2752.000000	77.792849 
2751.000000	77.768974 
2750.000000	77.744355 
2749.000000	77.717268 
2748.000000	77.687588 
2747.000000	77.654709 
2746.000000	77.617494 
2745.000000	77.575658 
2744.000000	77.528708 
2743.000000	77.474139 
2742.000000	77.409480 
2741.000000	77.335941 
2740.000000	77.257166 
2739.000000	77.174298 
2738.000000	77.085136 
2737.000000	76.988617 
2736.000000	76.887600 
2735.000000	76.786604 
2734.000000	76.689266 
2733.000000	76.599139 
2732.000000	76.521198 
2731.000000	76.461489 
2730.000000	76.426013 
2729.000000	76.419510 
2728.000000	76.443593 
2727.000000	76.495915 
2726.000000	76.572579 
2725.000000	76.671286 
2724.000000	76.790977 
2723.000000	76.929182 
2722.000000	77.081872 
2721.000000	77.245917 
2720.000000	77.419688 
2719.000000	77.601083 
2718.000000	77.786897 
2717.000000	77.974814 
2716.000000	78.164782 
2715.000000	78.357972 
2714.000000	78.555560 
2713.000000	78.758843 
2712.000000	78.969335 
2711.000000	79.187869 
2710.000000	79.413632 
2709.000000	79.644031 
2708.000000	79.875469 
2707.000000	80.105095 
2706.000000	80.332237 
2705.000000	80.557361 
2704.000000	80.779376 
2703.000000	80.995554 
2702.000000	81.204849 
2701.000000	81.409392 
2700.000000	81.611240 
2699.000000	81.809521 
2698.000000	82.002825 
2697.000000	82.192554 
2696.000000	82.381192 
2695.000000	82.568413 
2694.000000	82.751802 
2693.000000	82.930706 
2692.000000	83.106534 
2691.000000	83.279725 
2690.000000	83.449456 
2689.000000	83.616587 
2688.000000	83.784308 
2687.000000	83.955423 
2686.000000	84.130672 
2685.000000	84.309284 
2684.000000	84.488794 
2683.000000	84.664756 
2682.000000	84.833585 
2681.000000	84.996073 
2680.000000	85.155654 
2679.000000	85.312686 
2678.000000	85.462516 
2677.000000	85.599121 
2676.000000	85.718268 
2675.000000	85.817053 
2674.000000	85.893422 
2673.000000	85.947284 
2672.000000	85.980002 
2671.000000	85.991861 
2670.000000	85.981611 
2669.000000	85.948603 
2668.000000	85.893442 
2667.000000	85.816754 
2666.000000	85.720100 
2665.000000	85.608509 
2664.000000	85.489453 
2663.000000	85.368596 
2662.000000	85.248567 
2661.000000	85.131963 
2660.000000	85.022777 
2659.000000	84.924329 
2658.000000	84.838535 
2657.000000	84.767939 
2656.000000	84.715545 
2655.000000	84.681253 
2654.000000	84.660631 
2653.000000	84.648667 
2652.000000	84.643282 
2651.000000	84.644397 
2650.000000	84.651331 
2649.000000	84.662008 
2648.000000	84.673218 
2647.000000	84.680792 
2646.000000	84.680538 
2645.000000	84.669184 
2644.000000	84.643498 
2643.000000	84.599377 
2642.000000	84.533767 
2641.000000	84.446485 
2640.000000	84.337399 
2639.000000	84.202805 
2638.000000	84.038465 
2637.000000	83.846352 
2636.000000	83.634177 
2635.000000	83.407042 
2634.000000	83.163227 
2633.000000	82.900115 
2632.000000	82.621667 
2631.000000	82.338198 
2630.000000	82.060607 
2629.000000	81.795776 
2628.000000	81.545406 
2627.000000	81.307737 
2626.000000	81.081047 
2625.000000	80.865588 
2624.000000	80.661624 
2623.000000	80.467055 
2622.000000	80.279081 
2621.000000	80.097096 
2620.000000	79.921810 
2619.000000	79.752978 
2618.000000	79.590632 
2617.000000	79.436964 
2616.000000	79.293598 
2615.000000	79.157990 
2614.000000	79.025673 
2613.000000	78.894722 
2612.000000	78.764389 
2611.000000	78.630703 
2610.000000	78.488299 
2609.000000	78.337139 
2608.000000	78.184188 
2607.000000	78.038467 
2606.000000	77.907118 
2605.000000	77.794827 
2604.000000	77.702373 
2603.000000	77.625475 
2602.000000	77.558970 
2601.000000	77.502817 
2600.000000	77.461198 
2599.000000	77.435908 
2598.000000	77.424055 
2597.000000	77.422516 
2596.000000	77.431638 
2595.000000	77.454402 
2594.000000	77.495069 
2593.000000	77.559309 
2592.000000	77.653173 
2591.000000	77.781000 
2590.000000	77.945236 
2589.000000	78.147189 
2588.000000	78.385611 
2587.000000	78.654994 
2586.000000	78.947427 
2585.000000	79.256012 
2584.000000	79.574930 
2583.000000	79.896953 
2582.000000	80.213196 
2581.000000	80.515944 
2580.000000	80.801358 
2579.000000	81.070281 
2578.000000	81.326931 
2577.000000	81.574984 
2576.000000	81.813524 
2575.000000	82.038401 
2574.000000	82.248598 
2573.000000	82.448453 
2572.000000	82.641373 
2571.000000	82.824079 
2570.000000	82.990251 
2569.000000	83.138082 
2568.000000	83.271617 
2567.000000	83.396952 
2566.000000	83.520014 
2565.000000	83.645135 
2564.000000	83.771667 
2563.000000	83.894224 
2562.000000	84.010464 
2561.000000	84.126418 
2560.000000	84.249583 
2559.000000	84.379037 
2558.000000	84.507900 
2557.000000	84.634229 
2556.000000	84.763573 
2555.000000	84.900690 
2554.000000	85.043758 
2553.000000	85.187300 
2552.000000	85.326795 
2551.000000	85.460156 
2550.000000	85.587991 
2549.000000	85.712124 
2548.000000	85.830970 
2547.000000	85.937809 
2546.000000	86.027195 
2545.000000	86.101106 
2544.000000	86.164449 
2543.000000	86.216765 
2542.000000	86.253923 
2541.000000	86.276479 
2540.000000	86.290285 
2539.000000	86.299526 
2538.000000	86.304872 
2537.000000	86.307823 
2536.000000	86.310809 
2535.000000	86.312954 
2534.000000	86.311369 
2533.000000	86.306675 
2532.000000	86.302089 
2531.000000	86.297430 
2530.000000	86.289483 
2529.000000	86.277929 
2528.000000	86.265274 
2527.000000	86.251033 
2526.000000	86.231386 
2525.000000	86.204319 
2524.000000	86.169758 
2523.000000	86.125357 
2522.000000	86.068100 
2521.000000	85.999727 
2520.000000	85.924755 
2519.000000	85.843871 
2518.000000	85.755719 
2517.000000	85.664603 
2516.000000	85.579299 
2515.000000	85.503682 
2514.000000	85.434846 
2513.000000	85.370661 
2512.000000	85.312787 
2511.000000	85.262075 
2510.000000	85.217756 
2509.000000	85.182096 
2508.000000	85.159979 
2507.000000	85.153621 
2506.000000	85.163515 
2505.000000	85.194021 
2504.000000	85.250941 
2503.000000	85.333390 
2502.000000	85.435563 
2501.000000	85.557333 
2500.000000	85.705057 
2499.000000	85.879120 
2498.000000	86.067566 
2497.000000	86.255984 
2496.000000	86.439077 
2495.000000	86.620146 
2494.000000	86.803725 
2493.000000	86.991055 
2492.000000	87.178380 
2491.000000	87.357406 
2490.000000	87.521352 
2489.000000	87.672157 
2488.000000	87.817802 
2487.000000	87.961502 
2486.000000	88.097919 
2485.000000	88.220800 
2484.000000	88.329230 
2483.000000	88.425223 
2482.000000	88.510482 
2481.000000	88.587221 
2480.000000	88.657059 
2479.000000	88.717224 
2478.000000	88.762250 
2477.000000	88.790478 
2476.000000	88.804265 
2475.000000	88.803813 
2474.000000	88.787367 
2473.000000	88.759036 
2472.000000	88.730132 
2471.000000	88.710570 
2470.000000	88.704380 
2469.000000	88.714900 
2468.000000	88.747743 
2467.000000	88.805745 
2466.000000	88.885959 
2465.000000	88.983705 
2464.000000	89.094878 
2463.000000	89.213219 
2462.000000	89.331220 
2461.000000	89.445999 
2460.000000	89.559319 
2459.000000	89.670608 
2458.000000	89.775903 
2457.000000	89.875351 
2456.000000	89.974982 
2455.000000	90.078006 
2454.000000	90.180158 
2453.000000	90.276540 
2452.000000	90.367298 
2451.000000	90.453694 
2450.000000	90.534714 
2449.000000	90.611031 
2448.000000	90.686316 
2447.000000	90.760648 
2446.000000	90.828313 
2445.000000	90.886277 
2444.000000	90.939552 
2443.000000	90.993792 
2442.000000	91.047557 
2441.000000	91.096339 
2440.000000	91.139597 
2439.000000	91.179040 
2438.000000	91.213715 
2437.000000	91.241478 
2436.000000	91.262805 
2435.000000	91.280140 
2434.000000	91.296313 
2433.000000	91.315591 
2432.000000	91.342029 
2431.000000	91.374207 
2430.000000	91.405570 
2429.000000	91.432482 
2428.000000	91.457959 
2427.000000	91.485353 
2426.000000	91.512914 
2425.000000	91.537044 
2424.000000	91.556429 
2423.000000	91.570636 
2422.000000	91.579415 
2421.000000	91.586171 
2420.000000	91.597579 
2419.000000	91.617080 
2418.000000	91.642901 
2417.000000	91.674284 
2416.000000	91.714241 
2415.000000	91.763510 
2414.000000	91.817304 
2413.000000	91.871588 
2412.000000	91.927763 
2411.000000	91.987706 
2410.000000	92.049025 
2409.000000	92.109147 
2408.000000	92.169559 
2407.000000	92.231430 
2406.000000	92.290727 
2405.000000	92.342401 
2404.000000	92.386942 
2403.000000	92.428843 
2402.000000	92.470514 
2401.000000	92.510523 
2400.000000	92.545490 
2399.000000	92.571118 
2398.000000	92.583942 
2397.000000	92.584974 
2396.000000	92.580092 
2395.000000	92.574895 
2394.000000	92.570885 
2393.000000	92.567477 
2392.000000	92.564966 
2391.000000	92.564219 
2390.000000	92.565698 
2389.000000	92.569456 
2388.000000	92.573741 
2387.000000	92.573928 
2386.000000	92.566838 
2385.000000	92.556957 
2384.000000	92.555080 
2383.000000	92.570042 
2382.000000	92.604969 
2381.000000	92.660884 
2380.000000	92.737430 
2379.000000	92.827275 
2378.000000	92.916181 
2377.000000	92.993646 
2376.000000	93.057788 
2375.000000	93.107631 
2374.000000	93.139838 
2373.000000	93.158157 
2372.000000	93.177461 
2371.000000	93.208428 
2370.000000	93.247925 
2369.000000	93.292397 
2368.000000	93.346547 
2367.000000	93.404798 
2366.000000	93.443458 
2365.000000	93.452969 
2364.000000	93.457293 
2363.000000	93.475190 
2362.000000	93.495781 
2361.000000	93.503691 
2360.000000	93.503498 
2359.000000	93.517614 
2358.000000	93.557707 
2357.000000	93.623093 
2356.000000	93.702196 
2355.000000	93.761969 
2354.000000	93.782723 
2353.000000	93.774431 
2352.000000	93.773476 
2351.000000	93.795700 
2350.000000	93.823558 
2349.000000	93.844010 
2348.000000	93.849371 
2347.000000	93.841036 
2346.000000	93.818953 
2345.000000	93.799288 
2344.000000	93.810681 
2343.000000	93.846991 
2342.000000	93.902892 
2341.000000	93.970242 
2340.000000	94.040649 
2339.000000	94.097168 
2338.000000	94.128877 
2337.000000	94.144812 
2336.000000	94.155672 
2335.000000	94.160856 
2334.000000	94.147536 
2333.000000	94.114651 
2332.000000	94.071241 
2331.000000	94.034353 
2330.000000	93.998236 
2329.000000	93.968014 
2328.000000	93.931493 
2327.000000	93.890304 
2326.000000	93.836943 
2325.000000	93.779567 
2324.000000	93.735450 
2323.000000	93.716474 
2322.000000	93.728597 
2321.000000	93.763131 
2320.000000	93.807991 
2319.000000	93.847289 
2318.000000	93.868871 
2317.000000	93.876863 
2316.000000	93.873835 
2315.000000	93.860920 
2314.000000	93.825661 
2313.000000	93.774257 
2312.000000	93.715500 
2311.000000	93.663826 
2310.000000	93.615891 
2309.000000	93.576910 
2308.000000	93.550613 
2307.000000	93.542062 
2306.000000	93.538557 
2305.000000	93.526452 
2304.000000	93.493756 
2303.000000	93.441850 
2302.000000	93.378605 
2301.000000	93.322412 
2300.000000	93.283178 
2299.000000	93.259543 
2298.000000	93.238023 
2297.000000	93.217279 
2296.000000	93.203630 
2295.000000	93.205356 
2294.000000	93.220780 
2293.000000	93.249447 
2292.000000	93.290868 
2291.000000	93.341471 
2290.000000	93.394652 
2289.000000	93.451694 
2288.000000	93.521124 
2287.000000	93.604762 
2286.000000	93.694114 
2285.000000	93.781675 
2284.000000	93.868537 
2283.000000	93.954056 
2282.000000	94.031652 
2281.000000	94.097540 
2280.000000	94.156731 
2279.000000	94.211623 
2278.000000	94.257143 
2277.000000	94.293002 
2276.000000	94.331215 
2275.000000	94.382232 
2274.000000	94.440793 
2273.000000	94.494835 
2272.000000	94.539246 
2271.000000	94.575081 
2270.000000	94.601985 
2269.000000	94.621040 
2268.000000	94.638400 
2267.000000	94.658749 
2266.000000	94.678516 
2265.000000	94.690471 
2264.000000	94.689784 
2263.000000	94.675174 
2262.000000	94.650082 
2261.000000	94.622820 
2260.000000	94.596739 
2259.000000	94.560183 
2258.000000	94.499428 
2257.000000	94.419292 
2256.000000	94.338019 
2255.000000	94.260906 
2254.000000	94.177760 
2253.000000	94.089002 
2252.000000	94.013308 
2251.000000	93.963378 
2250.000000	93.931762 
2249.000000	93.911078 
2248.000000	93.910825 
2247.000000	93.942929 
2246.000000	94.002929 
2245.000000	94.076911 
2244.000000	94.158061 
2243.000000	94.247888 
2242.000000	94.348003 
2241.000000	94.456257 
2240.000000	94.563537 
2239.000000	94.652771 
2238.000000	94.713014 
2237.000000	94.756240 
2236.000000	94.805888 
2235.000000	94.866461 
2234.000000	94.921549 
2233.000000	94.964494 
2232.000000	95.009795 
2231.000000	95.066574 
2230.000000	95.122013 
2229.000000	95.161971 
2228.000000	95.189387 
2227.000000	95.210797 
2226.000000	95.223372 
2225.000000	95.228720 
2224.000000	95.242106 
2223.000000	95.273169 
2222.000000	95.311286 
2221.000000	95.342978 
2220.000000	95.370792 
2219.000000	95.403403 
2218.000000	95.439768 
2217.000000	95.474177 
2216.000000	95.505308 
2215.000000	95.531239 
2214.000000	95.547479 
2213.000000	95.557140 
2212.000000	95.570224 
2211.000000	95.587852 
2210.000000	95.602091 
2209.000000	95.614345 
2208.000000	95.634840 
2207.000000	95.659559 
2206.000000	95.669596 
2205.000000	95.660523 
2204.000000	95.650704 
2203.000000	95.652442 
2202.000000	95.657298 
2201.000000	95.657980 
2200.000000	95.660793 
2199.000000	95.666350 
2198.000000	95.661958 
2197.000000	95.645166 
2196.000000	95.632290 
2195.000000	95.631873 
2194.000000	95.631957 
2193.000000	95.623815 
2192.000000	95.614322 
2191.000000	95.604343 
2190.000000	95.581464 
2189.000000	95.547106 
2188.000000	95.524009 
2187.000000	95.521744 
2186.000000	95.521115 
2185.000000	95.508143 
2184.000000	95.496812 
2183.000000	95.500056 
2182.000000	95.504232 
2181.000000	95.491575 
2180.000000	95.464280 
2179.000000	95.430297 
2178.000000	95.391597 
2177.000000	95.360994 
2176.000000	95.360567 
2175.000000	95.383890 
2174.000000	95.386591 
2173.000000	95.334319 
2172.000000	95.238003 
2171.000000	95.127892 
2170.000000	95.019742 
2169.000000	94.921686 
2168.000000	94.846342 
2167.000000	94.795601 
2166.000000	94.753226 
2165.000000	94.707247 
2164.000000	94.660406 
2163.000000	94.611989 
2162.000000	94.561733 
2161.000000	94.543091 
2160.000000	94.608596 
2159.000000	94.752957 
2158.000000	94.894967 
2157.000000	94.968542 
2156.000000	94.983447 
2155.000000	94.976754 
2154.000000	94.959484 
2153.000000	94.929392 
2152.000000	94.893916 
2151.000000	94.858238 
2150.000000	94.816945 
2149.000000	94.773143 
2148.000000	94.742828 
2147.000000	94.729169 
2146.000000	94.715895 
2145.000000	94.694140 
2144.000000	94.670889 
2143.000000	94.644207 
2142.000000	94.597409 
2141.000000	94.525954 
2140.000000	94.443869 
2139.000000	94.356360 
2138.000000	94.253926 
2137.000000	94.140816 
2136.000000	94.038358 
2135.000000	93.947560 
2134.000000	93.837113 
2133.000000	93.682929 
2132.000000	93.494980 
2131.000000	93.293295 
2130.000000	93.082047 
2129.000000	92.859301 
2128.000000	92.630691 
2127.000000	92.399478 
2126.000000	92.158094 
2125.000000	91.900737 
2124.000000	91.632994 
2123.000000	91.362216 
2122.000000	91.090524 
2121.000000	90.822372 
2120.000000	90.566447 
2119.000000	90.325823 
2118.000000	90.098028 
2117.000000	89.887194 
2116.000000	89.703938 
2115.000000	89.551985 
2114.000000	89.427837 
2113.000000	89.334102 
2112.000000	89.278906 
2111.000000	89.261053 
2110.000000	89.270566 
2109.000000	89.305434 
2108.000000	89.372804 
2107.000000	89.471845 
2106.000000	89.591409 
2105.000000	89.727115 
2104.000000	89.883704 
2103.000000	90.056052 
2102.000000	90.225652 
2101.000000	90.383750 
2100.000000	90.542790 
2099.000000	90.716451 
2098.000000	90.902013 
2097.000000	91.089202 
2096.000000	91.271443 
2095.000000	91.440771 
2094.000000	91.587233 
2093.000000	91.712740 
2092.000000	91.831483 
2091.000000	91.948811 
2090.000000	92.053617 
2089.000000	92.138466 
2088.000000	92.212266 
2087.000000	92.284559 
2086.000000	92.352271 
2085.000000	92.410383 
2084.000000	92.460635 
2083.000000	92.501392 
2082.000000	92.525336 
2081.000000	92.537101 
2080.000000	92.556656 
2079.000000	92.593681 
2078.000000	92.634297 
2077.000000	92.664294 
2076.000000	92.689890 
2075.000000	92.723847 
2074.000000	92.766663 
2073.000000	92.814190 
2072.000000	92.868657 
2071.000000	92.929520 
2070.000000	92.988315 
2069.000000	93.044732 
2068.000000	93.113010 
2067.000000	93.200034 
2066.000000	93.291911 
2065.000000	93.374551 
2064.000000	93.453602 
2063.000000	93.541849 
2062.000000	93.641958 
2061.000000	93.752498 
2060.000000	93.873951 
2059.000000	93.997352 
2058.000000	94.104166 
2057.000000	94.189419 
2056.000000	94.267273 
2055.000000	94.341929 
2054.000000	94.393505 
2053.000000	94.408493 
2052.000000	94.405216 
2051.000000	94.413697 
2050.000000	94.448306 
2049.000000	94.511781 
2048.000000	94.603580 
2047.000000	94.706071 
2046.000000	94.784511 
2045.000000	94.822126 
2044.000000	94.836873 
2043.000000	94.846812 
2042.000000	94.842088 
2041.000000	94.808686 
2040.000000	94.754922 
2039.000000	94.695508 
2038.000000	94.635663 
2037.000000	94.588041 
2036.000000	94.575432 
2035.000000	94.597093 
2034.000000	94.621545 
2033.000000	94.630631 
2032.000000	94.639606 
2031.000000	94.658677 
2030.000000	94.674296 
2029.000000	94.686868 
2028.000000	94.725226 
2027.000000	94.801463 
2026.000000	94.890135 
2025.000000	94.974282 
2024.000000	95.074019 
2023.000000	95.204000 
2022.000000	95.339961 
2021.000000	95.454114 
2020.000000	95.550150 
2019.000000	95.636760 
2018.000000	95.701488 
2017.000000	95.740359 
2016.000000	95.779971 
2015.000000	95.838585 
2014.000000	95.896429 
2013.000000	95.930165 
2012.000000	95.947374 
2011.000000	95.965685 
2010.000000	95.988784 
2009.000000	96.023837 
2008.000000	96.087761 
2007.000000	96.172172 
2006.000000	96.235922 
2005.000000	96.256514 
2004.000000	96.256769 
2003.000000	96.262291 
2002.000000	96.269821 
2001.000000	96.271683 
2000.000000	96.275487 
1999.000000	96.280678 
1998.000000	96.267891 
1997.000000	96.232171 
1996.000000	96.195910 
1995.000000	96.171104 
1994.000000	96.141359 
1993.000000	96.099462 
1992.000000	96.069524 
1991.000000	96.069696 
1990.000000	96.087222 
1989.000000	96.111012 
1988.000000	96.149730 
1987.000000	96.198004 
1986.000000	96.225033 
1985.000000	96.220154 
1984.000000	96.210681 
1983.000000	96.209684 
1982.000000	96.189751 
1981.000000	96.139425 
1980.000000	96.105550 
1979.000000	96.137470 
1978.000000	96.219034 
1977.000000	96.299422 
1976.000000	96.360101 
1975.000000	96.404941 
1974.000000	96.423405 
1973.000000	96.412735 
1972.000000	96.401450 
1971.000000	96.410355 
1970.000000	96.421957 
1969.000000	96.419010 
1968.000000	96.417920 
1967.000000	96.431657 
1966.000000	96.436440 
1965.000000	96.413194 
1964.000000	96.387896 
1963.000000	96.396048 
1962.000000	96.435855 
1961.000000	96.482544 
1960.000000	96.522429 
1959.000000	96.548129 
1958.000000	96.548754 
1957.000000	96.531163 
1956.000000	96.524762 
1955.000000	96.544227 
1954.000000	96.571455 
1953.000000	96.590467 
1952.000000	96.610564 
1951.000000	96.638590 
1950.000000	96.661153 
1949.000000	96.672446 
1948.000000	96.689437 
1947.000000	96.718544 
1946.000000	96.737005 
1945.000000	96.730053 
1944.000000	96.719706 
1943.000000	96.733582 
1942.000000	96.768620 
1941.000000	96.808518 
1940.000000	96.851039 
1939.000000	96.893628 
1938.000000	96.918949 
1937.000000	96.918752 
1936.000000	96.912012 
1935.000000	96.918883 
1934.000000	96.936699 
1933.000000	96.959626 
1932.000000	96.995762 
1931.000000	97.045278 
1930.000000	97.086344 
1929.000000	97.101370 
1928.000000	97.101129 
1927.000000	97.101810 
1926.000000	97.100087 
1925.000000	97.089780 
1924.000000	97.081205 
1923.000000	97.086174 
1922.000000	97.097290 
1921.000000	97.101682 
1920.000000	97.102633 
1919.000000	97.111578 
1918.000000	97.132218 
1917.000000	97.163100 
1916.000000	97.200610 
1915.000000	97.232341 
1914.000000	97.242156 
1913.000000	97.230275 
1912.000000	97.213682 
1911.000000	97.200959 
1910.000000	97.185963 
1909.000000	97.171157 
1908.000000	97.173824 
1907.000000	97.195526 
1906.000000	97.213500 
1905.000000	97.214102 
1904.000000	97.209214 
1903.000000	97.211981 
1902.000000	97.217477 
1901.000000	97.218703 
1900.000000	97.221227 
1899.000000	97.225786 
1898.000000	97.218730 
1897.000000	97.196595 
1896.000000	97.178768 
1895.000000	97.180812 
1894.000000	97.192476 
1893.000000	97.197746 
1892.000000	97.199430 
1891.000000	97.209112 
1890.000000	97.228771 
1889.000000	97.256107 
1888.000000	97.292216 
1887.000000	97.332096 
1886.000000	97.364147 
1885.000000	97.388678 
1884.000000	97.420530 
1883.000000	97.464305 
1882.000000	97.504310 
1881.000000	97.528571 
1880.000000	97.546291 
1879.000000	97.567887 
1878.000000	97.586846 
1877.000000	97.597401 
1876.000000	97.607811 
1875.000000	97.620406 
1874.000000	97.620105 
1873.000000	97.597659 
1872.000000	97.565935 
1871.000000	97.539555 
1870.000000	97.515757 
1869.000000	97.492523 
1868.000000	97.487169 
1867.000000	97.510263 
1866.000000	97.544762 
1865.000000	97.569497 
1864.000000	97.580794 
1863.000000	97.581576 
1862.000000	97.569113 
1861.000000	97.546082 
1860.000000	97.527552 
1859.000000	97.522383 
1858.000000	97.522053 
1857.000000	97.518650 
1856.000000	97.517235 
1855.000000	97.519251 
1854.000000	97.512761 
1853.000000	97.488172 
1852.000000	97.452496 
1851.000000	97.414704 
1850.000000	97.370487 
1849.000000	97.318907 
1848.000000	97.274483 
1847.000000	97.248314 
1846.000000	97.231954 
1845.000000	97.213478 
1844.000000	97.200969 
1843.000000	97.208946 
1842.000000	97.230167 
1841.000000	97.249936 
1840.000000	97.269049 
1839.000000	97.291105 
1838.000000	97.310080 
1837.000000	97.323997 
1836.000000	97.342068 
1835.000000	97.367571 
1834.000000	97.388903 
1833.000000	97.399760 
1832.000000	97.414719 
1831.000000	97.445408 
1830.000000	97.476163 
1829.000000	97.490543 
1828.000000	97.495823 
1827.000000	97.503419 
1826.000000	97.511225 
1825.000000	97.518371 
1824.000000	97.537335 
1823.000000	97.571428 
1822.000000	97.602680 
1821.000000	97.617923 
1820.000000	97.627775 
1819.000000	97.646127 
1818.000000	97.669534 
1817.000000	97.688260 
1816.000000	97.697897 
1815.000000	97.692894 
1814.000000	97.664364 
1813.000000	97.618593 
1812.000000	97.580372 
1811.000000	97.562578 
1810.000000	97.554013 
1809.000000	97.544505 
1808.000000	97.539548 
1807.000000	97.540279 
1806.000000	97.528589 
1805.000000	97.488702 
1804.000000	97.430929 
1803.000000	97.383774 
1802.000000	97.365615 
1801.000000	97.375018 
1800.000000	97.398202 
1799.000000	97.412905 
1798.000000	97.403005 
1797.000000	97.374963 
1796.000000	97.350043 
1795.000000	97.335968 
1794.000000	97.315834 
1793.000000	97.276204 
1792.000000	97.239471 
1791.000000	97.236992 
1790.000000	97.261656 
1789.000000	97.281770 
1788.000000	97.280039 
1787.000000	97.258922 
1786.000000	97.229237 
1785.000000	97.206469 
1784.000000	97.201972 
1783.000000	97.210180 
1782.000000	97.208717 
1781.000000	97.186141 
1780.000000	97.160206 
1779.000000	97.144678 
1778.000000	97.123893 
1777.000000	97.077281 
1776.000000	97.015177 
1775.000000	96.966252 
1774.000000	96.935250 
1773.000000	96.890632 
1772.000000	96.811758 
1771.000000	96.714745 
1770.000000	96.615646 
1769.000000	96.525330 
1768.000000	96.461117 
1767.000000	96.425430 
1766.000000	96.390549 
1765.000000	96.329685 
1764.000000	96.244680 
1763.000000	96.150815 
1762.000000	96.052159 
1761.000000	95.952752 
1760.000000	95.864763 
1759.000000	95.789063 
1758.000000	95.711901 
1757.000000	95.622388 
1756.000000	95.529727 
1755.000000	95.436306 
1754.000000	95.320631 
1753.000000	95.173899 
1752.000000	95.030292 
1751.000000	94.934277 
1750.000000	94.884482 
1749.000000	94.845230 
1748.000000	94.797751 
1747.000000	94.742762 
1746.000000	94.672172 
1745.000000	94.585749 
1744.000000	94.512022 
1743.000000	94.476340 
1742.000000	94.463826 
1741.000000	94.440645 
1740.000000	94.397689 
1739.000000	94.354179 
1738.000000	94.322450 
1737.000000	94.304724 
1736.000000	94.325755 
1735.000000	94.408846 
1734.000000	94.522358 
1733.000000	94.615376 
1732.000000	94.676079 
1731.000000	94.711037 
1730.000000	94.726930 
1729.000000	94.735569 
1728.000000	94.753366 
1727.000000	94.780525 
1726.000000	94.797004 
1725.000000	94.797236 
1724.000000	94.803016 
1723.000000	94.826462 
1722.000000	94.849400 
1721.000000	94.853646 
1720.000000	94.851667 
1719.000000	94.865221 
1718.000000	94.895144 
1717.000000	94.948813 
1716.000000	95.046599 
1715.000000	95.182865 
1714.000000	95.328950 
1713.000000	95.466370 
1712.000000	95.597334 
1711.000000	95.726962 
1710.000000	95.847261 
1709.000000	95.951555 
1708.000000	96.052628 
1707.000000	96.159649 
1706.000000	96.250868 
1705.000000	96.303416 
1704.000000	96.330412 
1703.000000	96.359157 
1702.000000	96.404550 
1701.000000	96.444117 
1700.000000	96.461887 
1699.000000	96.480369 
1698.000000	96.501497 
1697.000000	96.514853 
1696.000000	96.526239 
1695.000000	96.546955 
1694.000000	96.567104 
1693.000000	96.564728 
1692.000000	96.538134 
1691.000000	96.494957 
1690.000000	96.433620 
1689.000000	96.357718 
1688.000000	96.294287 
1687.000000	96.261698 
1686.000000	96.241182 
1685.000000	96.173892 
1684.000000	96.050502 
1683.000000	95.956666 
1682.000000	95.906569 
1681.000000	95.853792 
1680.000000	95.800596 
1679.000000	95.766570 
1678.000000	95.736014 
1677.000000	95.678942 
1676.000000	95.599540 
1675.000000	95.533535 
1674.000000	95.487049 
1673.000000	95.434592 
1672.000000	95.376043 
1671.000000	95.325282 
1670.000000	95.265723 
1669.000000	95.177105 
1668.000000	95.089784 
1667.000000	95.030831 
1666.000000	94.970192 
1665.000000	94.864966 
1664.000000	94.703687 
1663.000000	94.499301 
1662.000000	94.258199 
1661.000000	93.974558 
1660.000000	93.653784 
1659.000000	93.298587 
1658.000000	92.884650 
1657.000000	92.396537 
1656.000000	91.849075 
1655.000000	91.205754 
1654.000000	90.229902 
1653.000000	88.825170 
1652.000000	87.532193 
1651.000000	86.650763 
1650.000000	85.950199 
1649.000000	85.203170 
1648.000000	84.361621 
1647.000000	83.565372 
1646.000000	82.982773 
1645.000000	82.623064 
1644.000000	82.414421 
1643.000000	82.301878 
1642.000000	82.212140 
1641.000000	82.059565 
1640.000000	81.825525 
1639.000000	81.540422 
1638.000000	81.158476 
1637.000000	80.511698 
1636.000000	79.488687 
1635.000000	78.270172 
1634.000000	77.077114 
1633.000000	75.881312 
1632.000000	74.586386 
1631.000000	73.158893 
1630.000000	71.548724 
1629.000000	69.677803 
1628.000000	67.594524 
1627.000000	65.499608 
1626.000000	63.482261 
1625.000000	61.398987 
1624.000000	59.132084 
1623.000000	56.875319 
1622.000000	54.967557 
1621.000000	53.492604 
1620.000000	52.323354 
1619.000000	51.349769 
1618.000000	50.484145 
1617.000000	49.630740 
1616.000000	48.828028 
1615.000000	48.235467 
1614.000000	47.883907 
1613.000000	47.684168 
1612.000000	47.626658 
1611.000000	47.826578 
1610.000000	48.354665 
1609.000000	49.114968 
1608.000000	49.946296 
1607.000000	50.723285 
1606.000000	51.313192 
1605.000000	51.564470 
1604.000000	51.405268 
1603.000000	50.885747 
1602.000000	50.088672 
1601.000000	49.053842 
1600.000000	47.827999 
1599.000000	46.508699 
1598.000000	45.169415 
1597.000000	43.802686 
1596.000000	42.399638 
1595.000000	41.019933 
1594.000000	39.711549 
1593.000000	38.432172 
1592.000000	37.131684 
1591.000000	35.838654 
1590.000000	34.595578 
1589.000000	33.390296 
1588.000000	32.234156 
1587.000000	31.230482 
1586.000000	30.476608 
1585.000000	29.963253 
1584.000000	29.655216 
1583.000000	29.588569 
1582.000000	29.786173 
1581.000000	30.158641 
1580.000000	30.602876 
1579.000000	31.132292 
1578.000000	31.824795 
1577.000000	32.685415 
1576.000000	33.619675 
1575.000000	34.547005 
1574.000000	35.439665 
1573.000000	36.281072 
1572.000000	37.100117 
1571.000000	37.990273 
1570.000000	38.993661 
1569.000000	39.982630 
1568.000000	40.827739 
1567.000000	41.578414 
1566.000000	42.339723 
1565.000000	43.120275 
1564.000000	43.863023 
1563.000000	44.561520 
1562.000000	45.270536 
1561.000000	46.058685 
1560.000000	47.005026 
1559.000000	48.116130 
1558.000000	49.206786 
1557.000000	50.113897 
1556.000000	50.885737 
1555.000000	51.646614 
1554.000000	52.439106 
1553.000000	53.192104 
1552.000000	53.849771 
1551.000000	54.457216 
1550.000000	55.083776 
1549.000000	55.718363 
1548.000000	56.309877 
1547.000000	56.872176 
1546.000000	57.474050 
1545.000000	58.157605 
1544.000000	58.915575 
1543.000000	59.748846 
1542.000000	60.694591 
1541.000000	61.775342 
1540.000000	62.936807 
1539.000000	64.071335 
1538.000000	65.089224 
1537.000000	65.969609 
1536.000000	66.764130 
1535.000000	67.551903 
1534.000000	68.348773 
1533.000000	69.068536 
1532.000000	69.632130 
1531.000000	70.035516 
1530.000000	70.275601 
1529.000000	70.313362 
1528.000000	70.106635 
1527.000000	69.641368 
1526.000000	68.945939 
1525.000000	68.091421 
1524.000000	67.117583 
1523.000000	65.963469 
1522.000000	64.594441 
1521.000000	63.266318 
1520.000000	62.352999 
1519.000000	61.910607 
1518.000000	61.794740 
1517.000000	61.923614 
1516.000000	62.269205 
1515.000000	62.759196 
1514.000000	63.290899 
1513.000000	63.775360 
1512.000000	64.139860 
1511.000000	64.349518 
1510.000000	64.425996 
1509.000000	64.410199 
1508.000000	64.344462 
1507.000000	64.313269 
1506.000000	64.465610 
1505.000000	64.835791 
1504.000000	65.332633 
1503.000000	65.901026 
1502.000000	66.543304 
1501.000000	67.260495 
1500.000000	68.031369 
1499.000000	68.842113 
1498.000000	69.708655 
1497.000000	70.639689 
1496.000000	71.593483 
1495.000000	72.509407 
1494.000000	73.357882 
1493.000000	74.139188 
1492.000000	74.882829 
1491.000000	75.644301 
1490.000000	76.452872 
1489.000000	77.267056 
1488.000000	78.032422 
1487.000000	78.740244 
1486.000000	79.391169 
1485.000000	79.956006 
1484.000000	80.420182 
1483.000000	80.819941 
1482.000000	81.198200 
1481.000000	81.560947 
1480.000000	81.895917 
1479.000000	82.203400 
1478.000000	82.474461 
1477.000000	82.678968 
1476.000000	82.805249 
1475.000000	82.873893 
1474.000000	82.868913 
1473.000000	82.717769 
1472.000000	82.408681 
1471.000000	81.999993 
1470.000000	81.471767 
1469.000000	80.732006 
1468.000000	79.724276 
1467.000000	78.430829 
1466.000000	76.846255 
1465.000000	75.100329 
1464.000000	73.546503 
1463.000000	72.435757 
1462.000000	71.628207 
1461.000000	70.768801 
1460.000000	69.515003 
1459.000000	67.534815 
1458.000000	64.526135 
1457.000000	60.817636 
1456.000000	57.698875 
1455.000000	56.041421 
1454.000000	55.727146 
1453.000000	56.463193 
1452.000000	58.040052 
1451.000000	60.156058 
1450.000000	62.470015 
1449.000000	64.763216 
1448.000000	66.890787 
1447.000000	68.731578 
1446.000000	70.289144 
1445.000000	71.694343 
1444.000000	73.083976 
1443.000000	74.530748 
1442.000000	76.032078 
1441.000000	77.497923 
1440.000000	78.799634 
1439.000000	79.885210 
1438.000000	80.814849 
1437.000000	81.639676 
1436.000000	82.300372 
1435.000000	82.749265 
1434.000000	83.039845 
1433.000000	83.220046 
1432.000000	83.278145 
1431.000000	83.203778 
1430.000000	83.026607 
1429.000000	82.766468 
1428.000000	82.403902 
1427.000000	81.916681 
1426.000000	81.271057 
1425.000000	80.394193 
1424.000000	79.256695 
1423.000000	77.930851 
1422.000000	76.412569 
1421.000000	74.441170 
1420.000000	71.655766 
1419.000000	68.076893 
1418.000000	64.229836 
1417.000000	60.491455 
1416.000000	56.876954 
1415.000000	53.414771 
1414.000000	50.269095 
1413.000000	47.666095 
1412.000000	45.898627 
1411.000000	45.250235 
1410.000000	45.777059 
1409.000000	47.298069 
1408.000000	49.610858 
1407.000000	52.561856 
1406.000000	55.950880 
1405.000000	59.494022 
1404.000000	62.882495 
1403.000000	65.889402 
1402.000000	68.476254 
1401.000000	70.774593 
1400.000000	72.928000 
1399.000000	74.936125 
1398.000000	76.696701 
1397.000000	78.190033 
1396.000000	79.503307 
1395.000000	80.706526 
1394.000000	81.784583 
1393.000000	82.691039 
1392.000000	83.415614 
1391.000000	83.984783 
1390.000000	84.439256 
1389.000000	84.814366 
1388.000000	85.127918 
1387.000000	85.387012 
1386.000000	85.592310 
1385.000000	85.713352 
1384.000000	85.675146 
1383.000000	85.373213 
1382.000000	84.697743 
1381.000000	83.586078 
1380.000000	82.137777 
1379.000000	80.697883 
1378.000000	79.688599 
1377.000000	79.255605 
1376.000000	79.145579 
1375.000000	78.938120 
1374.000000	78.343857 
1373.000000	77.289412 
1372.000000	75.769548 
1371.000000	73.728832 
1370.000000	71.102135 
1369.000000	67.904009 
1368.000000	64.282760 
1367.000000	60.483215 
1366.000000	56.718059 
1365.000000	53.099647 
1364.000000	49.759689 
1363.000000	47.015272 
1362.000000	45.255262 
1361.000000	44.579267 
1360.000000	44.713596 
1359.000000	45.299236 
1358.000000	46.150606 
1357.000000	47.305957 
1356.000000	48.920195 
1355.000000	51.091069 
1354.000000	53.741398 
1353.000000	56.655888 
1352.000000	59.613586 
1351.000000	62.465864 
1350.000000	65.124442 
1349.000000	67.535894 
1348.000000	69.683659 
1347.000000	71.587833 
1346.000000	73.284302 
1345.000000	74.799063 
1344.000000	76.139439 
1343.000000	77.308398 
1342.000000	78.327086 
1341.000000	79.238956 
1340.000000	80.087552 
1339.000000	80.892090 
1338.000000	81.649587 
1337.000000	82.353684 
1336.000000	83.000875 
1335.000000	83.586796 
1334.000000	84.108705 
1333.000000	84.569235 
1332.000000	84.972741 
1331.000000	85.321561 
1330.000000	85.618008 
1329.000000	85.863742 
1328.000000	86.054502 
1327.000000	86.180833 
1326.000000	86.235085 
1325.000000	86.211506 
1324.000000	86.099750 
1323.000000	85.883932 
1322.000000	85.546085 
1321.000000	85.063935 
1320.000000	84.406738 
1319.000000	83.537284 
1318.000000	82.409749 
1317.000000	80.953065 
1316.000000	79.057047 
1315.000000	76.584769 
1314.000000	73.415211 
1313.000000	69.509377 
1312.000000	64.974531 
1311.000000	60.075662 
1310.000000	55.181778 
1309.000000	50.713157 
1308.000000	47.117062 
1307.000000	44.790636 
1306.000000	43.938949 
1305.000000	44.506751 
1304.000000	46.241009 
1303.000000	48.781145 
1302.000000	51.732782 
1301.000000	54.760261 
1300.000000	57.661567 
1299.000000	60.362226 
1298.000000	62.855197 
1297.000000	65.155131 
1296.000000	67.281696 
1295.000000	69.248871 
1294.000000	71.057188 
1293.000000	72.699887 
1292.000000	74.176221 
1291.000000	75.496880 
1290.000000	76.679516 
1289.000000	77.742241 
1288.000000	78.701094 
1287.000000	79.570923 
1286.000000	80.364716 
1285.000000	81.090328 
1284.000000	81.751298 
1283.000000	82.353922 
1282.000000	82.910261 
1281.000000	83.430693 
1280.000000	83.917939 
1279.000000	84.373203 
1278.000000	84.802881 
1277.000000	85.213059 
1276.000000	85.602013 
1275.000000	85.965008 
1274.000000	86.302723 
1273.000000	86.618571 
1272.000000	86.912523 
1271.000000	87.184968 
1270.000000	87.441892 
1269.000000	87.688224 
1268.000000	87.921011 
1267.000000	88.136732 
1266.000000	88.339313 
1265.000000	88.532396 
1264.000000	88.710074 
1263.000000	88.865030 
1262.000000	89.000277 
1261.000000	89.123173 
1260.000000	89.233641 
1259.000000	89.328271 
1258.000000	89.409428 
1257.000000	89.479578 
1256.000000	89.532231 
1255.000000	89.558832 
1254.000000	89.559793 
1253.000000	89.539207 
1252.000000	89.493205 
1251.000000	89.411425 
1250.000000	89.283348 
1249.000000	89.093549 
1248.000000	88.815172 
1247.000000	88.413415 
1246.000000	87.845421 
1245.000000	87.046623 
1244.000000	85.924175 
1243.000000	84.374743 
1242.000000	82.314969 
1241.000000	79.725614 
1240.000000	76.729937 
1239.000000	73.662480 
1238.000000	71.019598 
1237.000000	69.280110 
1236.000000	68.721668 
1235.000000	69.329848 
1234.000000	70.826496 
1233.000000	72.811395 
1232.000000	74.930294 
1231.000000	76.960472 
1230.000000	78.799958 
1229.000000	80.418742 
1228.000000	81.819845 
1227.000000	83.023483 
1226.000000	84.061185 
1225.000000	84.963664 
1224.000000	85.745495 
1223.000000	86.400673 
1222.000000	86.911338 
1221.000000	87.264356 
1220.000000	87.475393 
1219.000000	87.608083 
1218.000000	87.756121 
1217.000000	87.986865 
1216.000000	88.301634 
1215.000000	88.653968 
1214.000000	88.995909 
1213.000000	89.299832 
1212.000000	89.551983 
1211.000000	89.748899 
1210.000000	89.901110 
1209.000000	90.025531 
1208.000000	90.132989 
1207.000000	90.230754 
1206.000000	90.330836 
1205.000000	90.443583 
1204.000000	90.567060 
1203.000000	90.693583 
1202.000000	90.823265 
1201.000000	90.961692 
1200.000000	91.108858 
1199.000000	91.260486 
1198.000000	91.415837 
1197.000000	91.574155 
1196.000000	91.727669 
1195.000000	91.868286 
1194.000000	91.997819 
1193.000000	92.122646 
1192.000000	92.242472 
1191.000000	92.352814 
1190.000000	92.453323 
1189.000000	92.544899 
1188.000000	92.624331 
1187.000000	92.690682 
1186.000000	92.750794 
1185.000000	92.809648 
1184.000000	92.862030 
1183.000000	92.902055 
1182.000000	92.932669 
1181.000000	92.956702 
1180.000000	92.967911 
1179.000000	92.961708 
1178.000000	92.945614 
1177.000000	92.927250 
1176.000000	92.900459 
1175.000000	92.855099 
1174.000000	92.792444 
1173.000000	92.718911 
1172.000000	92.632425 
1171.000000	92.527293 
1170.000000	92.405329 
1169.000000	92.270060 
1168.000000	92.115832 
1167.000000	91.932464 
1166.000000	91.713447 
1165.000000	91.449544 
1164.000000	91.120784 
1163.000000	90.702079 
1162.000000	90.166504 
1161.000000	89.473232 
1160.000000	88.561946 
1159.000000	87.370688 
1158.000000	85.857553 
1157.000000	84.014812 
1156.000000	81.898205 
1155.000000	79.665470 
1154.000000	77.567641 
1153.000000	75.878011 
1152.000000	74.813494 
1151.000000	74.481884 
1150.000000	74.857048 
1149.000000	75.801781 
1148.000000	77.132432 
1147.000000	78.675170 
1146.000000	80.288307 
1145.000000	81.866243 
1144.000000	83.339166 
1143.000000	84.669806 
1142.000000	85.846521 
1141.000000	86.872815 
1140.000000	87.758467 
1139.000000	88.517729 
1138.000000	89.168600 
1137.000000	89.726309 
1136.000000	90.199787 
1135.000000	90.598806 
1134.000000	90.938296 
1133.000000	91.228505 
1132.000000	91.466662 
1131.000000	91.645824 
1130.000000	91.766649 
1129.000000	91.833044 
1128.000000	91.841099 
1127.000000	91.777354 
1126.000000	91.619641 
1125.000000	91.330478 
1124.000000	90.851769 
1123.000000	90.102803 
1122.000000	88.962317 
1121.000000	87.236147 
1120.000000	84.664801 
1119.000000	81.029084 
1118.000000	76.341787 
1117.000000	71.026165 
1116.000000	65.932611 
1115.000000	62.060578 
1114.000000	60.073735 
1113.000000	60.013980 
1112.000000	61.477603 
1111.000000	63.989106 
1110.000000	67.181065 
1109.000000	70.738176 
1108.000000	74.320377 
1107.000000	77.605447 
1106.000000	80.393230 
1105.000000	82.638047 
1104.000000	84.387980 
1103.000000	85.723499 
1102.000000	86.738786 
1101.000000	87.529218 
1100.000000	88.174187 
1099.000000	88.736616 
1098.000000	89.264056 
1097.000000	89.770834 
1096.000000	90.233337 
1095.000000	90.626962 
1094.000000	90.961002 
1093.000000	91.261375 
1092.000000	91.535367 
1091.000000	91.777077 
1090.000000	91.993446 
1089.000000	92.197871 
1088.000000	92.387193 
1087.000000	92.549888 
1086.000000	92.690097 
1085.000000	92.821921 
1084.000000	92.947824 
1083.000000	93.063039 
1082.000000	93.172072 
1081.000000	93.280606 
1080.000000	93.380968 
1079.000000	93.465941 
1078.000000	93.546556 
1077.000000	93.635350 
1076.000000	93.722874 
1075.000000	93.792593 
1074.000000	93.848665 
1073.000000	93.906896 
1072.000000	93.968492 
1071.000000	94.024793 
1070.000000	94.078052 
1069.000000	94.135316 
1068.000000	94.190424 
1067.000000	94.233333 
1066.000000	94.269154 
1065.000000	94.308164 
1064.000000	94.346256 
1063.000000	94.375149 
1062.000000	94.402063 
1061.000000	94.438740 
1060.000000	94.480341 
1059.000000	94.515221 
1058.000000	94.545893 
1057.000000	94.580109 
1056.000000	94.611430 
1055.000000	94.630250 
1054.000000	94.645336 
1053.000000	94.672143 
1052.000000	94.706361 
1051.000000	94.731665 
1050.000000	94.747782 
1049.000000	94.767650 
1048.000000	94.794132 
1047.000000	94.821870 
1046.000000	94.851806 
1045.000000	94.883175 
1044.000000	94.903651 
1043.000000	94.908239 
1042.000000	94.916118 
1041.000000	94.946508 
1040.000000	94.987570 
1039.000000	95.011188 
1038.000000	95.009309 
1037.000000	94.993292 
1036.000000	94.967271 
1035.000000	94.927287 
1034.000000	94.878055 
1033.000000	94.823506 
1032.000000	94.745433 
1031.000000	94.615623 
1030.000000	94.423011 
1029.000000	94.162800 
1028.000000	93.801925 
1027.000000	93.274530 
1026.000000	92.494227 
1025.000000	91.337760 
1024.000000	89.643650 
1023.000000	87.311505 
1022.000000	84.448154 
1021.000000	81.374838 
1020.000000	78.417683 
1019.000000	75.638044 
1018.000000	72.761544 
1017.000000	69.429632 
1016.000000	65.601326 
1015.000000	61.758369 
1014.000000	58.715116 
1013.000000	57.186764 
1012.000000	57.455831 
1011.000000	59.310529 
1010.000000	62.217044 
1009.000000	65.595016 
1008.000000	69.016486 
1007.000000	72.235020 
1006.000000	75.124851 
1005.000000	77.636115 
1004.000000	79.775089 
1003.000000	81.579083 
1002.000000	83.091288 
1001.000000	84.353228 
1000.000000	85.408471 
999.000000	 86.301858 
998.000000	 87.071893 
997.000000	 87.744418 
996.000000	 88.333127 
995.000000	 88.845233 
994.000000	 89.287345 
993.000000	 89.668572 
992.000000	 90.001025 
991.000000	 90.297512 
990.000000	 90.565986 
989.000000	 90.805956 
988.000000	 91.013784 
987.000000	 91.192337 
986.000000	 91.352027 
985.000000	 91.502010 
984.000000	 91.644697 
983.000000	 91.778672 
982.000000	 91.900782 
981.000000	 92.005163 
980.000000	 92.087989 
979.000000	 92.155204 
978.000000	 92.218018 
977.000000	 92.278803 
976.000000	 92.329929 
975.000000	 92.368880 
974.000000	 92.404334 
973.000000	 92.442630 
972.000000	 92.478065 
971.000000	 92.502496 
970.000000	 92.515904 
969.000000	 92.521518 
968.000000	 92.518899 
967.000000	 92.508058 
966.000000	 92.492275 
965.000000	 92.470853 
964.000000	 92.437532 
963.000000	 92.392390 
962.000000	 92.346741 
961.000000	 92.309410 
960.000000	 92.276140 
959.000000	 92.238552 
958.000000	 92.194859 
957.000000	 92.145345 
956.000000	 92.086790 
955.000000	 92.019522 
954.000000	 91.951974 
953.000000	 91.890655 
952.000000	 91.833364 
951.000000	 91.778988 
950.000000	 91.735055 
949.000000	 91.707550 
948.000000	 91.691403 
947.000000	 91.679166 
946.000000	 91.671555 
945.000000	 91.671606 
944.000000	 91.676091 
943.000000	 91.681189 
942.000000	 91.689710 
941.000000	 91.704289 
940.000000	 91.719846 
939.000000	 91.730802 
938.000000	 91.739117 
937.000000	 91.746473 
936.000000	 91.744470 
935.000000	 91.721618 
934.000000	 91.675136 
933.000000	 91.606491 
932.000000	 91.507994 
931.000000	 91.360140 
930.000000	 91.137243 
929.000000	 90.807216 
928.000000	 90.326894 
927.000000	 89.640226 
926.000000	 88.673832 
925.000000	 87.331095 
924.000000	 85.513278 
923.000000	 83.193562 
922.000000	 80.522208 
921.000000	 77.895370 
920.000000	 75.905575 
919.000000	 75.123474 
918.000000	 75.795461 
917.000000	 77.692993 
916.000000	 80.255119 
915.000000	 82.894930 
914.000000	 85.234038 
913.000000	 87.142492 
912.000000	 88.639950 
911.000000	 89.794748 
910.000000	 90.681780 
909.000000	 91.368474 
908.000000	 91.904414 
907.000000	 92.323820 
906.000000	 92.655585 
905.000000	 92.922515 
904.000000	 93.137104 
903.000000	 93.309531 
902.000000	 93.454659 
901.000000	 93.582261 
900.000000	 93.689516 
899.000000	 93.774282 
898.000000	 93.847418 
897.000000	 93.919936 
896.000000	 93.988373 
895.000000	 94.045982 
894.000000	 94.098714 
893.000000	 94.155480 
892.000000	 94.211489 
891.000000	 94.257139 
890.000000	 94.296558 
889.000000	 94.341739 
888.000000	 94.393612 
887.000000	 94.443340 
886.000000	 94.487193 
885.000000	 94.525893 
884.000000	 94.554085 
883.000000	 94.565601 
882.000000	 94.566859 
881.000000	 94.572336 
880.000000	 94.589167 
879.000000	 94.615892 
878.000000	 94.649913 
877.000000	 94.684938 
876.000000	 94.708774 
875.000000	 94.716992 
874.000000	 94.721931 
873.000000	 94.735243 
872.000000	 94.749103 
871.000000	 94.747141 
870.000000	 94.724944 
869.000000	 94.685473 
868.000000	 94.622480 
867.000000	 94.524020 
866.000000	 94.386134 
865.000000	 94.207574 
864.000000	 93.973841 
863.000000	 93.657772 
862.000000	 93.229971 
861.000000	 92.653612 
860.000000	 91.867210 
859.000000	 90.774877 
858.000000	 89.240792 
857.000000	 87.084134 
856.000000	 84.110452 
855.000000	 80.217136 
854.000000	 75.537737 
853.000000	 70.526914 
852.000000	 65.901655 
851.000000	 62.414533 
850.000000	 60.560804 
849.000000	 60.447305 
848.000000	 61.908654 
847.000000	 64.665076 
846.000000	 68.341000 
845.000000	 72.434600 
844.000000	 76.398732 
843.000000	 79.820346 
842.000000	 82.546611 
841.000000	 84.648243 
840.000000	 86.277961 
839.000000	 87.567432 
838.000000	 88.608074 
837.000000	 89.459772 
836.000000	 90.156825 
835.000000	 90.725825 
834.000000	 91.202766 
833.000000	 91.619587 
832.000000	 91.981582 
831.000000	 92.279656 
830.000000	 92.522011 
829.000000	 92.733675 
828.000000	 92.928171 
827.000000	 93.101473 
826.000000	 93.251993 
825.000000	 93.384724 
824.000000	 93.497866 
823.000000	 93.587997 
822.000000	 93.665470 
821.000000	 93.743903 
820.000000	 93.820876 
819.000000	 93.887772 
818.000000	 93.949712 
817.000000	 94.017352 
816.000000	 94.087126 
815.000000	 94.148184 
814.000000	 94.202506 
813.000000	 94.259147 
812.000000	 94.313585 
811.000000	 94.352305 
810.000000	 94.375252 
809.000000	 94.395832 
808.000000	 94.420539 
807.000000	 94.444810 
806.000000	 94.466242 
805.000000	 94.486573 
804.000000	 94.503601 
803.000000	 94.515079 
802.000000	 94.525716 
801.000000	 94.535922 
800.000000	 94.530124 
799.000000	 94.492681 
798.000000	 94.430244 
797.000000	 94.362366 
796.000000	 94.295528 
795.000000	 94.221893 
794.000000	 94.136394 
793.000000	 94.037566 
792.000000	 93.917340 
791.000000	 93.767833 
790.000000	 93.593692 
789.000000	 93.400778 
788.000000	 93.176081 
787.000000	 92.892825 
786.000000	 92.529208 
785.000000	 92.067243 
784.000000	 91.479741 
783.000000	 90.732861 
782.000000	 89.792529 
781.000000	 88.613064 
780.000000	 87.133248 
779.000000	 85.308778 
778.000000	 83.147664 
777.000000	 80.704977 
776.000000	 78.065529 
775.000000	 75.363745 
774.000000	 72.820575 
773.000000	 70.742505 
772.000000	 69.464916 
771.000000	 69.250264 
770.000000	 70.174344 
769.000000	 72.074789 
768.000000	 74.610236 
767.000000	 77.388747 
766.000000	 80.086357 
765.000000	 82.503439 
764.000000	 84.556900 
763.000000	 86.246925 
762.000000	 87.624038 
761.000000	 88.750985 
760.000000	 89.669813 
759.000000	 90.402778 
758.000000	 90.976589 
757.000000	 91.426703 
756.000000	 91.779451 
755.000000	 92.051605 
754.000000	 92.270984 
753.000000	 92.478157 
752.000000	 92.701649 
751.000000	 92.945184 
750.000000	 93.200807 
749.000000	 93.459103 
748.000000	 93.704093 
747.000000	 93.915030 
746.000000	 94.081462 
745.000000	 94.208262 
744.000000	 94.305363 
743.000000	 94.383595 
742.000000	 94.458404 
741.000000	 94.541922 
740.000000	 94.629372 
739.000000	 94.705786 
738.000000	 94.766350 
737.000000	 94.818553 
736.000000	 94.867402 
735.000000	 94.913343 
734.000000	 94.962558 
733.000000	 95.022370 
732.000000	 95.085782 
731.000000	 95.136326 
730.000000	 95.168991 
729.000000	 95.192130 
728.000000	 95.211890 
727.000000	 95.229844 
726.000000	 95.252294 
725.000000	 95.285291 
724.000000	 95.319447 
723.000000	 95.335526 
722.000000	 95.329333 
721.000000	 95.321671 
720.000000	 95.338607 
719.000000	 95.384785 
718.000000	 95.442474 
717.000000	 95.491374 
716.000000	 95.522272 
715.000000	 95.540813 
714.000000	 95.560411 
713.000000	 95.584516 
712.000000	 95.601206 
711.000000	 95.601346 
710.000000	 95.592346 
709.000000	 95.583760 
708.000000	 95.571576 
707.000000	 95.551439 
706.000000	 95.533958 
705.000000	 95.530708 
704.000000	 95.533799 
703.000000	 95.525574 
702.000000	 95.505384 
701.000000	 95.488997 
700.000000	 95.482887 
699.000000	 95.477582 
698.000000	 95.461914 
697.000000	 95.431655 
696.000000	 95.388739 
695.000000	 95.342767 
694.000000	 95.311905 
693.000000	 95.305845 
692.000000	 95.310689 
691.000000	 95.308042 
690.000000	 95.298986 
689.000000	 95.294878 
688.000000	 95.291879 
687.000000	 95.273645 
686.000000	 95.238346 
685.000000	 95.199018 
684.000000	 95.160105 
683.000000	 95.116864 
682.000000	 95.072537 
681.000000	 95.037511 
680.000000	 95.013392 
679.000000	 94.992357 
678.000000	 94.963946 
677.000000	 94.907359 
676.000000	 94.807343 
675.000000	 94.668426 
674.000000	 94.516061 
673.000000	 94.378422 
672.000000	 94.286859 
671.000000	 94.276854 
670.000000	 94.358700 
669.000000	 94.473526 
668.000000	 94.468665 
667.000000	 94.091848 
666.000000	 93.460328 
665.000000	 92.849910 
664.000000	 92.275480 
663.000000	 91.645290 
662.000000	 90.885272 
661.000000	 89.941395 
660.000000	 88.764992 
659.000000	 87.338592 
658.000000	 85.663593 
657.000000	 83.689650 
656.000000	 81.354910 
655.000000	 78.698209 
654.000000	 75.843774 
653.000000	 72.894417 
652.000000	 69.989473 
651.000000	 67.388460 
650.000000	 65.289942 

