PE IR                   SPECTRUM    ASCII       PEDS        1.60        
  -1
~SP.SP
18/04/18
12:34:39.00
18/04/18
12:34:39.00
Claudia

650.000000
16









SPECTRUM 100,CPU32 MAIN 00.02.8200 12-DECEMBER-2006 10:00:00
MIR TGS
MIR
OPTKBR
78890
0.200000

4.000000
STRONG
RATIO
SPECTRUM
MAGNITUDE
UNIVERSAL ATR
DOUBLE

COMBINED


0


#HDR
-1
-1
#GR
CM-1
%T
0.00002384185791015625
0.0
4000.000000
-1.000000
3351
8
98.830542
64.901615
#DATA
4000.000000	98.550413 
3999.000000	98.549610 
3998.000000	98.550155 
3997.000000	98.554710 
3996.000000	98.562372 
3995.000000	98.570821 
3994.000000	98.577427 
3993.000000	98.580060 
3992.000000	98.578234 
3991.000000	98.573830 
3990.000000	98.570152 
3989.000000	98.569656 
3988.000000	98.572259 
3987.000000	98.575619 
3986.000000	98.576768 
3985.000000	98.573787 
3984.000000	98.566964 
3983.000000	98.558777 
3982.000000	98.552395 
3981.000000	98.549700 
3980.000000	98.550554 
3979.000000	98.553897 
3978.000000	98.558963 
3977.000000	98.565170 
3976.000000	98.571399 
3975.000000	98.576163 
3974.000000	98.578619 
3973.000000	98.579121 
3972.000000	98.578513 
3971.000000	98.577107 
3970.000000	98.574367 
3969.000000	98.569841 
3968.000000	98.564531 
3967.000000	98.560927 
3966.000000	98.561122 
3965.000000	98.564685 
3964.000000	98.568849 
3963.000000	98.571202 
3962.000000	98.571973 
3961.000000	98.573229 
3960.000000	98.576121 
3959.000000	98.579856 
3958.000000	98.583123 
3957.000000	98.585813 
3956.000000	98.589083 
3955.000000	98.593869 
3954.000000	98.599717 
3953.000000	98.604571 
3952.000000	98.605796 
3951.000000	98.601995 
3950.000000	98.594170 
3949.000000	98.585508 
3948.000000	98.579661 
3947.000000	98.578992 
3946.000000	98.583676 
3945.000000	98.591494 
3944.000000	98.598799 
3943.000000	98.602891 
3942.000000	98.604155 
3941.000000	98.604909 
3940.000000	98.605874 
3939.000000	98.604987 
3938.000000	98.600033 
3937.000000	98.591966 
3936.000000	98.585033 
3935.000000	98.583002 
3934.000000	98.585680 
3933.000000	98.588932 
3932.000000	98.588627 
3931.000000	98.584537 
3930.000000	98.580133 
3929.000000	98.579376 
3928.000000	98.583479 
3927.000000	98.590084 
3926.000000	98.595313 
3925.000000	98.596947 
3924.000000	98.595964 
3923.000000	98.594698 
3922.000000	98.594119 
3921.000000	98.594081 
3920.000000	98.594676 
3919.000000	98.595787 
3918.000000	98.595332 
3917.000000	98.590208 
3916.000000	98.580073 
3915.000000	98.568766 
3914.000000	98.560907 
3913.000000	98.558350 
3912.000000	98.559600 
3911.000000	98.562138 
3910.000000	98.564476 
3909.000000	98.567075 
3908.000000	98.572108 
3907.000000	98.581132 
3906.000000	98.592232 
3905.000000	98.599165 
3904.000000	98.596504 
3903.000000	98.586508 
3902.000000	98.577576 
3901.000000	98.575703 
3900.000000	98.579939 
3899.000000	98.585658 
3898.000000	98.590078 
3897.000000	98.593432 
3896.000000	98.596797 
3895.000000	98.601540 
3894.000000	98.608458 
3893.000000	98.615296 
3892.000000	98.615959 
3891.000000	98.606458 
3890.000000	98.591188 
3889.000000	98.578819 
3888.000000	98.574664 
3887.000000	98.577332 
3886.000000	98.581735 
3885.000000	98.585616 
3884.000000	98.590472 
3883.000000	98.596303 
3882.000000	98.600140 
3881.000000	98.600035 
3880.000000	98.598574 
3879.000000	98.600148 
3878.000000	98.606698 
3877.000000	98.616823 
3876.000000	98.626947 
3875.000000	98.632582 
3874.000000	98.631652 
3873.000000	98.626639 
3872.000000	98.621250 
3871.000000	98.615545 
3870.000000	98.607943 
3869.000000	98.601988 
3868.000000	98.603013 
3867.000000	98.610003 
3866.000000	98.616352 
3865.000000	98.617190 
3864.000000	98.613425 
3863.000000	98.608666 
3862.000000	98.604052 
3861.000000	98.599404 
3860.000000	98.594825 
3859.000000	98.589203 
3858.000000	98.580485 
3857.000000	98.569824 
3856.000000	98.563599 
3855.000000	98.565937 
3854.000000	98.568094 
3853.000000	98.563278 
3852.000000	98.559778 
3851.000000	98.564317 
3850.000000	98.572979 
3849.000000	98.580979 
3848.000000	98.587348 
3847.000000	98.593380 
3846.000000	98.599583 
3845.000000	98.605207 
3844.000000	98.609027 
3843.000000	98.610265 
3842.000000	98.608639 
3841.000000	98.604822 
3840.000000	98.600594 
3839.000000	98.598243 
3838.000000	98.598863 
3837.000000	98.601054 
3836.000000	98.602693 
3835.000000	98.603263 
3834.000000	98.603934 
3833.000000	98.605800 
3832.000000	98.608208 
3831.000000	98.609292 
3830.000000	98.607666 
3829.000000	98.603170 
3828.000000	98.596776 
3827.000000	98.590713 
3826.000000	98.587849 
3825.000000	98.590315 
3824.000000	98.597917 
3823.000000	98.606894 
3822.000000	98.609673 
3821.000000	98.602260 
3820.000000	98.591055 
3819.000000	98.584604 
3818.000000	98.585160 
3817.000000	98.589517 
3816.000000	98.594451 
3815.000000	98.601125 
3814.000000	98.610511 
3813.000000	98.618215 
3812.000000	98.618734 
3811.000000	98.611899 
3810.000000	98.602735 
3809.000000	98.595925 
3808.000000	98.590465 
3807.000000	98.582719 
3806.000000	98.573354 
3805.000000	98.566764 
3804.000000	98.565707 
3803.000000	98.569765 
3802.000000	98.575612 
3801.000000	98.581746 
3800.000000	98.590486 
3799.000000	98.601083 
3798.000000	98.608542 
3797.000000	98.609855 
3796.000000	98.607699 
3795.000000	98.607373 
3794.000000	98.610895 
3793.000000	98.616039 
3792.000000	98.620230 
3791.000000	98.622861 
3790.000000	98.623723 
3789.000000	98.621691 
3788.000000	98.616358 
3787.000000	98.609963 
3786.000000	98.606143 
3785.000000	98.606450 
3784.000000	98.608923 
3783.000000	98.610245 
3782.000000	98.608192 
3781.000000	98.602502 
3780.000000	98.594788 
3779.000000	98.588652 
3778.000000	98.587806 
3777.000000	98.593142 
3776.000000	98.601885 
3775.000000	98.609946 
3774.000000	98.614966 
3773.000000	98.617187 
3772.000000	98.617634 
3771.000000	98.616696 
3770.000000	98.615290 
3769.000000	98.615958 
3768.000000	98.620418 
3767.000000	98.626331 
3766.000000	98.628982 
3765.000000	98.626163 
3764.000000	98.620360 
3763.000000	98.615612 
3762.000000	98.613032 
3761.000000	98.610667 
3760.000000	98.606206 
3759.000000	98.598813 
3758.000000	98.588308 
3757.000000	98.575301 
3756.000000	98.562385 
3755.000000	98.552751 
3754.000000	98.547269 
3753.000000	98.543921 
3752.000000	98.540867 
3751.000000	98.538755 
3750.000000	98.538898 
3749.000000	98.540459 
3748.000000	98.542540 
3747.000000	98.546125 
3746.000000	98.551128 
3745.000000	98.551918 
3744.000000	98.548291 
3743.000000	98.550470 
3742.000000	98.561618 
3741.000000	98.573551 
3740.000000	98.579171 
3739.000000	98.578292 
3738.000000	98.574219 
3737.000000	98.568490 
3736.000000	98.562892 
3735.000000	98.561809 
3734.000000	98.565895 
3733.000000	98.568023 
3732.000000	98.561240 
3731.000000	98.546870 
3730.000000	98.532417 
3729.000000	98.524438 
3728.000000	98.524998 
3727.000000	98.531696 
3726.000000	98.539942 
3725.000000	98.545807 
3724.000000	98.547808 
3723.000000	98.547520 
3722.000000	98.548323 
3721.000000	98.553548 
3720.000000	98.564215 
3719.000000	98.578462 
3718.000000	98.592443 
3717.000000	98.601707 
3716.000000	98.603165 
3715.000000	98.595412 
3714.000000	98.579582 
3713.000000	98.561138 
3712.000000	98.548223 
3711.000000	98.546234 
3710.000000	98.552876 
3709.000000	98.561535 
3708.000000	98.568080 
3707.000000	98.571962 
3706.000000	98.573982 
3705.000000	98.574405 
3704.000000	98.573061 
3703.000000	98.570657 
3702.000000	98.569140 
3701.000000	98.570990 
3700.000000	98.577404 
3699.000000	98.586820 
3698.000000	98.595479 
3697.000000	98.599838 
3696.000000	98.599427 
3695.000000	98.596604 
3694.000000	98.593727 
3693.000000	98.592081 
3692.000000	98.592816 
3691.000000	98.596904 
3690.000000	98.602303 
3689.000000	98.604935 
3688.000000	98.604680 
3687.000000	98.605380 
3686.000000	98.608963 
3685.000000	98.614038 
3684.000000	98.619343 
3683.000000	98.625566 
3682.000000	98.632834 
3681.000000	98.636931 
3680.000000	98.632050 
3679.000000	98.618696 
3678.000000	98.606340 
3677.000000	98.605106 
3676.000000	98.613524 
3675.000000	98.622438 
3674.000000	98.627283 
3673.000000	98.629280 
3672.000000	98.631132 
3671.000000	98.635349 
3670.000000	98.642388 
3669.000000	98.651473 
3668.000000	98.660437 
3667.000000	98.666160 
3666.000000	98.667715 
3665.000000	98.666916 
3664.000000	98.666138 
3663.000000	98.666131 
3662.000000	98.665591 
3661.000000	98.662807 
3660.000000	98.658284 
3659.000000	98.654754 
3658.000000	98.654737 
3657.000000	98.657828 
3656.000000	98.662415 
3655.000000	98.668455 
3654.000000	98.675406 
3653.000000	98.680416 
3652.000000	98.680258 
3651.000000	98.674551 
3650.000000	98.666495 
3649.000000	98.660494 
3648.000000	98.658096 
3647.000000	98.657697 
3646.000000	98.657227 
3645.000000	98.655266 
3644.000000	98.650401 
3643.000000	98.642031 
3642.000000	98.632290 
3641.000000	98.625163 
3640.000000	98.623041 
3639.000000	98.624299 
3638.000000	98.625847 
3637.000000	98.626511 
3636.000000	98.626309 
3635.000000	98.623907 
3634.000000	98.617494 
3633.000000	98.608817 
3632.000000	98.603828 
3631.000000	98.607745 
3630.000000	98.617756 
3629.000000	98.624120 
3628.000000	98.623220 
3627.000000	98.620104 
3626.000000	98.618579 
3625.000000	98.619153 
3624.000000	98.622322 
3623.000000	98.628717 
3622.000000	98.637377 
3621.000000	98.645184 
3620.000000	98.648637 
3619.000000	98.647268 
3618.000000	98.644770 
3617.000000	98.645524 
3616.000000	98.651440 
3615.000000	98.661086 
3614.000000	98.669831 
3613.000000	98.672874 
3612.000000	98.669248 
3611.000000	98.661561 
3610.000000	98.652744 
3609.000000	98.644758 
3608.000000	98.639500 
3607.000000	98.638708 
3606.000000	98.641751 
3605.000000	98.644971 
3604.000000	98.644374 
3603.000000	98.639158 
3602.000000	98.633444 
3601.000000	98.633418 
3600.000000	98.641408 
3599.000000	98.652823 
3598.000000	98.660083 
3597.000000	98.658967 
3596.000000	98.651301 
3595.000000	98.642138 
3594.000000	98.635412 
3593.000000	98.632843 
3592.000000	98.635502 
3591.000000	98.644415 
3590.000000	98.658846 
3589.000000	98.674146 
3588.000000	98.683311 
3587.000000	98.683325 
3586.000000	98.678282 
3585.000000	98.674416 
3584.000000	98.674731 
3583.000000	98.678016 
3582.000000	98.681616 
3581.000000	98.683688 
3580.000000	98.683743 
3579.000000	98.681912 
3578.000000	98.678843 
3577.000000	98.676507 
3576.000000	98.677488 
3575.000000	98.682890 
3574.000000	98.690658 
3573.000000	98.697038 
3572.000000	98.699628 
3571.000000	98.699055 
3570.000000	98.698080 
3569.000000	98.699390 
3568.000000	98.703460 
3567.000000	98.707799 
3566.000000	98.708924 
3565.000000	98.705607 
3564.000000	98.699345 
3563.000000	98.691843 
3562.000000	98.683419 
3561.000000	98.674771 
3560.000000	98.669469 
3559.000000	98.672228 
3558.000000	98.683676 
3557.000000	98.698160 
3556.000000	98.708088 
3555.000000	98.710111 
3554.000000	98.707039 
3553.000000	98.704139 
3552.000000	98.704665 
3551.000000	98.708212 
3550.000000	98.712195 
3549.000000	98.714149 
3548.000000	98.713469 
3547.000000	98.711537 
3546.000000	98.710227 
3545.000000	98.710122 
3544.000000	98.710532 
3543.000000	98.710609 
3542.000000	98.709646 
3541.000000	98.707074 
3540.000000	98.703256 
3539.000000	98.699987 
3538.000000	98.699403 
3537.000000	98.701785 
3536.000000	98.705025 
3535.000000	98.706357 
3534.000000	98.704783 
3533.000000	98.701780 
3532.000000	98.700029 
3531.000000	98.701316 
3530.000000	98.704841 
3529.000000	98.707561 
3528.000000	98.706824 
3527.000000	98.702911 
3526.000000	98.698647 
3525.000000	98.696633 
3524.000000	98.697212 
3523.000000	98.699035 
3522.000000	98.700923 
3521.000000	98.702536 
3520.000000	98.703708 
3519.000000	98.703965 
3518.000000	98.703343 
3517.000000	98.702978 
3516.000000	98.704363 
3515.000000	98.708141 
3514.000000	98.713789 
3513.000000	98.719760 
3512.000000	98.723293 
3511.000000	98.721007 
3510.000000	98.711645 
3509.000000	98.698627 
3508.000000	98.688483 
3507.000000	98.685771 
3506.000000	98.689792 
3505.000000	98.695798 
3504.000000	98.698692 
3503.000000	98.696151 
3502.000000	98.689801 
3501.000000	98.684237 
3500.000000	98.683860 
3499.000000	98.689185 
3498.000000	98.696273 
3497.000000	98.700876 
3496.000000	98.703032 
3495.000000	98.706230 
3494.000000	98.712216 
3493.000000	98.718420 
3492.000000	98.721331 
3491.000000	98.720979 
3490.000000	98.720922 
3489.000000	98.724139 
3488.000000	98.729914 
3487.000000	98.734904 
3486.000000	98.736534 
3485.000000	98.734956 
3484.000000	98.732219 
3483.000000	98.730316 
3482.000000	98.730030 
3481.000000	98.731011 
3480.000000	98.732337 
3479.000000	98.732824 
3478.000000	98.731336 
3477.000000	98.727488 
3476.000000	98.722236 
3475.000000	98.717537 
3474.000000	98.715027 
3473.000000	98.714827 
3472.000000	98.715753 
3471.000000	98.716823 
3470.000000	98.718465 
3469.000000	98.721826 
3468.000000	98.726756 
3467.000000	98.731115 
3466.000000	98.732698 
3465.000000	98.731345 
3464.000000	98.728484 
3463.000000	98.725103 
3462.000000	98.721320 
3461.000000	98.717997 
3460.000000	98.717428 
3459.000000	98.721651 
3458.000000	98.730571 
3457.000000	98.742036 
3456.000000	98.753463 
3455.000000	98.763002 
3454.000000	98.769844 
3453.000000	98.773935 
3452.000000	98.775277 
3451.000000	98.773278 
3450.000000	98.767117 
3449.000000	98.757506 
3448.000000	98.747994 
3447.000000	98.743620 
3446.000000	98.747222 
3445.000000	98.756910 
3444.000000	98.767237 
3443.000000	98.772823 
3442.000000	98.771763 
3441.000000	98.766536 
3440.000000	98.761800 
3439.000000	98.760711 
3438.000000	98.762471 
3437.000000	98.762894 
3436.000000	98.758047 
3435.000000	98.748252 
3434.000000	98.738762 
3433.000000	98.735704 
3432.000000	98.740455 
3431.000000	98.748150 
3430.000000	98.752033 
3429.000000	98.749221 
3428.000000	98.742038 
3427.000000	98.734489 
3426.000000	98.728658 
3425.000000	98.724684 
3424.000000	98.722891 
3423.000000	98.724653 
3422.000000	98.730894 
3421.000000	98.739977 
3420.000000	98.747682 
3419.000000	98.750272 
3418.000000	98.748356 
3417.000000	98.747090 
3416.000000	98.751125 
3415.000000	98.759308 
3414.000000	98.765716 
3413.000000	98.766381 
3412.000000	98.763537 
3411.000000	98.762373 
3410.000000	98.765268 
3409.000000	98.770728 
3408.000000	98.776458 
3407.000000	98.781216 
3406.000000	98.784202 
3405.000000	98.785046 
3404.000000	98.785039 
3403.000000	98.786501 
3402.000000	98.789923 
3401.000000	98.792658 
3400.000000	98.791463 
3399.000000	98.785988 
3398.000000	98.779364 
3397.000000	98.775509 
3396.000000	98.775834 
3395.000000	98.778187 
3394.000000	98.778924 
3393.000000	98.776322 
3392.000000	98.772201 
3391.000000	98.770152 
3390.000000	98.772383 
3389.000000	98.778335 
3388.000000	98.785810 
3387.000000	98.792872 
3386.000000	98.799010 
3385.000000	98.804801 
3384.000000	98.810199 
3383.000000	98.813125 
3382.000000	98.810676 
3381.000000	98.802443 
3380.000000	98.792017 
3379.000000	98.784388 
3378.000000	98.781874 
3377.000000	98.782903 
3376.000000	98.783970 
3375.000000	98.782077 
3374.000000	98.776266 
3373.000000	98.768613 
3372.000000	98.763839 
3371.000000	98.766281 
3370.000000	98.775928 
3369.000000	98.787560 
3368.000000	98.794632 
3367.000000	98.794557 
3366.000000	98.790452 
3365.000000	98.787691 
3364.000000	98.788636 
3363.000000	98.790854 
3362.000000	98.790602 
3361.000000	98.787582 
3360.000000	98.785281 
3359.000000	98.786570 
3358.000000	98.790174 
3357.000000	98.792352 
3356.000000	98.791336 
3355.000000	98.789033 
3354.000000	98.788639 
3353.000000	98.791830 
3352.000000	98.798443 
3351.000000	98.807592 
3350.000000	98.817884 
3349.000000	98.826696 
3348.000000	98.830542 
3347.000000	98.827473 
3346.000000	98.819502 
3345.000000	98.811788 
3344.000000	98.808493 
3343.000000	98.809328 
3342.000000	98.810532 
3341.000000	98.808867 
3340.000000	98.803988 
3339.000000	98.797433 
3338.000000	98.790727 
3337.000000	98.784819 
3336.000000	98.780211 
3335.000000	98.776924 
3334.000000	98.774921 
3333.000000	98.774881 
3332.000000	98.777802 
3331.000000	98.783422 
3330.000000	98.789651 
3329.000000	98.794001 
3328.000000	98.795206 
3327.000000	98.793481 
3326.000000	98.790153 
3325.000000	98.787223 
3324.000000	98.786188 
3323.000000	98.786692 
3322.000000	98.787121 
3321.000000	98.786828 
3320.000000	98.786678 
3319.000000	98.786906 
3318.000000	98.785689 
3317.000000	98.780909 
3316.000000	98.772611 
3315.000000	98.763002 
3314.000000	98.754678 
3313.000000	98.749347 
3312.000000	98.747109 
3311.000000	98.746011 
3310.000000	98.743140 
3309.000000	98.737251 
3308.000000	98.729670 
3307.000000	98.721812 
3306.000000	98.712807 
3305.000000	98.700888 
3304.000000	98.686511 
3303.000000	98.672689 
3302.000000	98.662339 
3301.000000	98.656057 
3300.000000	98.651962 
3299.000000	98.646556 
3298.000000	98.636154 
3297.000000	98.619214 
3296.000000	98.598101 
3295.000000	98.578047 
3294.000000	98.563718 
3293.000000	98.556273 
3292.000000	98.553159 
3291.000000	98.550497 
3290.000000	98.546028 
3289.000000	98.539947 
3288.000000	98.532973 
3287.000000	98.524478 
3286.000000	98.513677 
3285.000000	98.502138 
3284.000000	98.492841 
3283.000000	98.486120 
3282.000000	98.478628 
3281.000000	98.467827 
3280.000000	98.456013 
3279.000000	98.448030 
3278.000000	98.445981 
3277.000000	98.447959 
3276.000000	98.451229 
3275.000000	98.454536 
3274.000000	98.457090 
3273.000000	98.457128 
3272.000000	98.452636 
3271.000000	98.443140 
3270.000000	98.430419 
3269.000000	98.417406 
3268.000000	98.406089 
3267.000000	98.396377 
3266.000000	98.387368 
3265.000000	98.379378 
3264.000000	98.373452 
3263.000000	98.368868 
3262.000000	98.363093 
3261.000000	98.355095 
3260.000000	98.346816 
3259.000000	98.339937 
3258.000000	98.332906 
3257.000000	98.323233 
3256.000000	98.311656 
3255.000000	98.301655 
3254.000000	98.295098 
3253.000000	98.290204 
3252.000000	98.283640 
3251.000000	98.273058 
3250.000000	98.258009 
3249.000000	98.240537 
3248.000000	98.225012 
3247.000000	98.215262 
3246.000000	98.210788 
3245.000000	98.206835 
3244.000000	98.198935 
3243.000000	98.186725 
3242.000000	98.173050 
3241.000000	98.160420 
3240.000000	98.148996 
3239.000000	98.137416 
3238.000000	98.124811 
3237.000000	98.111847 
3236.000000	98.099928 
3235.000000	98.089498 
3234.000000	98.079300 
3233.000000	98.067201 
3232.000000	98.051449 
3231.000000	98.031588 
3230.000000	98.009150 
3229.000000	97.987392 
3228.000000	97.968958 
3227.000000	97.953187 
3226.000000	97.936906 
3225.000000	97.918468 
3224.000000	97.899739 
3223.000000	97.883292 
3222.000000	97.869040 
3221.000000	97.855001 
3220.000000	97.840327 
3219.000000	97.825987 
3218.000000	97.812882 
3217.000000	97.800594 
3216.000000	97.787810 
3215.000000	97.773199 
3214.000000	97.756368 
3213.000000	97.738551 
3212.000000	97.721714 
3211.000000	97.706511 
3210.000000	97.692097 
3209.000000	97.678416 
3208.000000	97.666923 
3207.000000	97.657781 
3206.000000	97.647998 
3205.000000	97.634270 
3204.000000	97.616476 
3203.000000	97.596331 
3202.000000	97.573689 
3201.000000	97.547051 
3200.000000	97.517696 
3199.000000	97.490538 
3198.000000	97.469606 
3197.000000	97.453848 
3196.000000	97.438151 
3195.000000	97.417703 
3194.000000	97.391157 
3193.000000	97.360623 
3192.000000	97.329135 
3191.000000	97.297787 
3190.000000	97.265421 
3189.000000	97.231399 
3188.000000	97.197702 
3187.000000	97.167101 
3186.000000	97.139660 
3185.000000	97.112308 
3184.000000	97.081687 
3183.000000	97.046519 
3182.000000	97.007756 
3181.000000	96.967750 
3180.000000	96.928963 
3179.000000	96.891989 
3178.000000	96.854858 
3177.000000	96.815472 
3176.000000	96.774307 
3175.000000	96.732950 
3174.000000	96.690200 
3173.000000	96.642000 
3172.000000	96.586438 
3171.000000	96.527485 
3170.000000	96.472491 
3169.000000	96.426504 
3168.000000	96.389479 
3167.000000	96.357896 
3166.000000	96.327726 
3165.000000	96.296192 
3164.000000	96.262283 
3163.000000	96.226584 
3162.000000	96.190298 
3161.000000	96.153579 
3160.000000	96.114555 
3159.000000	96.070767 
3158.000000	96.022352 
3157.000000	95.973343 
3156.000000	95.928318 
3155.000000	95.887243 
3154.000000	95.844736 
3153.000000	95.795369 
3152.000000	95.738982 
3151.000000	95.680032 
3150.000000	95.622696 
3149.000000	95.567891 
3148.000000	95.514204 
3147.000000	95.459704 
3146.000000	95.402601 
3145.000000	95.341876 
3144.000000	95.278461 
3143.000000	95.215246 
3142.000000	95.155060 
3141.000000	95.098379 
3140.000000	95.042918 
3139.000000	94.985272 
3138.000000	94.923241 
3137.000000	94.857086 
3136.000000	94.788852 
3135.000000	94.720745 
3134.000000	94.654309 
3133.000000	94.590282 
3132.000000	94.527618 
3131.000000	94.462386 
3130.000000	94.389460 
3129.000000	94.306882 
3128.000000	94.218154 
3127.000000	94.129266 
3126.000000	94.043785 
3125.000000	93.961293 
3124.000000	93.879240 
3123.000000	93.794427 
3122.000000	93.703183 
3121.000000	93.602511 
3120.000000	93.492169 
3119.000000	93.374634 
3118.000000	93.252274 
3117.000000	93.125006 
3116.000000	92.991105 
3115.000000	92.849691 
3114.000000	92.701935 
3113.000000	92.550078 
3112.000000	92.395682 
3111.000000	92.238909 
3110.000000	92.079450 
3109.000000	91.917990 
3108.000000	91.756258 
3107.000000	91.595313 
3106.000000	91.434173 
3105.000000	91.270840 
3104.000000	91.104731 
3103.000000	90.937801 
3102.000000	90.773313 
3101.000000	90.613706 
3100.000000	90.459212 
3099.000000	90.307857 
3098.000000	90.156889 
3097.000000	90.005020 
3096.000000	89.853648 
3095.000000	89.705597 
3094.000000	89.562584 
3093.000000	89.424247 
3092.000000	89.289579 
3091.000000	89.158661 
3090.000000	89.032711 
3089.000000	88.912743 
3088.000000	88.798437 
3087.000000	88.688104 
3086.000000	88.579668 
3085.000000	88.472343 
3084.000000	88.367960 
3083.000000	88.270388 
3082.000000	88.182666 
3081.000000	88.104109 
3080.000000	88.030615 
3079.000000	87.958300 
3078.000000	87.886892 
3077.000000	87.819628 
3076.000000	87.760437 
3075.000000	87.711435 
3074.000000	87.672104 
3073.000000	87.639765 
3072.000000	87.611289 
3071.000000	87.585703 
3070.000000	87.565072 
3069.000000	87.551714 
3068.000000	87.544496 
3067.000000	87.539224 
3066.000000	87.533098 
3065.000000	87.527470 
3064.000000	87.525578 
3063.000000	87.528920 
3062.000000	87.536974 
3061.000000	87.549314 
3060.000000	87.566536 
3059.000000	87.589402 
3058.000000	87.618151 
3057.000000	87.652327 
3056.000000	87.690431 
3055.000000	87.730234 
3054.000000	87.770526 
3053.000000	87.812404 
3052.000000	87.857857 
3051.000000	87.906982 
3050.000000	87.957143 
3049.000000	88.004645 
3048.000000	88.046658 
3047.000000	88.081891 
3046.000000	88.110450 
3045.000000	88.133433 
3044.000000	88.152271 
3043.000000	88.168276 
3042.000000	88.182580 
3041.000000	88.195572 
3040.000000	88.205831 
3039.000000	88.210568 
3038.000000	88.208176 
3037.000000	88.199903 
3036.000000	88.188102 
3035.000000	88.173674 
3034.000000	88.156678 
3033.000000	88.138731 
3032.000000	88.122510 
3031.000000	88.108416 
3030.000000	88.093621 
3029.000000	88.075559 
3028.000000	88.055208 
3027.000000	88.036028 
3026.000000	88.020566 
3025.000000	88.008992 
3024.000000	88.000153 
3023.000000	87.992627 
3022.000000	87.984739 
3021.000000	87.974909 
3020.000000	87.963063 
3019.000000	87.951608 
3018.000000	87.944201 
3017.000000	87.942828 
3016.000000	87.945843 
3015.000000	87.949127 
3014.000000	87.949315 
3013.000000	87.945954 
3012.000000	87.940877 
3011.000000	87.936126 
3010.000000	87.932471 
3009.000000	87.929081 
3008.000000	87.924057 
3007.000000	87.915397 
3006.000000	87.901114 
3005.000000	87.877323 
3004.000000	87.836815 
3003.000000	87.773273 
3002.000000	87.690935 
3001.000000	87.610443 
3000.000000	87.561536 
2999.000000	87.565904 
2998.000000	87.624106 
2997.000000	87.716299 
2996.000000	87.812043 
2995.000000	87.878587 
2994.000000	87.884892 
2993.000000	87.807716 
2992.000000	87.643680 
2991.000000	87.418970 
2990.000000	87.184431 
2989.000000	86.994189 
2988.000000	86.881945 
2987.000000	86.852602 
2986.000000	86.891692 
2985.000000	86.979817 
2984.000000	87.099467 
2983.000000	87.234984 
2982.000000	87.372887 
2981.000000	87.504284 
2980.000000	87.625778 
2979.000000	87.737306 
2978.000000	87.839710 
2977.000000	87.934082 
2976.000000	88.022118 
2975.000000	88.106445 
2974.000000	88.190925 
2973.000000	88.280735 
2972.000000	88.381421 
2971.000000	88.496744 
2970.000000	88.625966 
2969.000000	88.762162 
2968.000000	88.893938 
2967.000000	89.011341 
2966.000000	89.111928 
2965.000000	89.200886 
2964.000000	89.284916 
2963.000000	89.366607 
2962.000000	89.444418 
2961.000000	89.515809 
2960.000000	89.578462 
2959.000000	89.629390 
2958.000000	89.664492 
2957.000000	89.679114 
2956.000000	89.669086 
2955.000000	89.632999 
2954.000000	89.574842 
2953.000000	89.502967 
2952.000000	89.424706 
2951.000000	89.342824 
2950.000000	89.258212 
2949.000000	89.173633 
2948.000000	89.091841 
2947.000000	89.011478 
2946.000000	88.928708 
2945.000000	88.843342 
2944.000000	88.760434 
2943.000000	88.685070 
2942.000000	88.617832 
2941.000000	88.556262 
2940.000000	88.498797 
2939.000000	88.446645 
2938.000000	88.403704 
2937.000000	88.375370 
2936.000000	88.365369 
2935.000000	88.372208 
2934.000000	88.389587 
2933.000000	88.411046 
2932.000000	88.433901 
2931.000000	88.459329 
2930.000000	88.490627 
2929.000000	88.531355 
2928.000000	88.582566 
2927.000000	88.640565 
2926.000000	88.698865 
2925.000000	88.753415 
2924.000000	88.804923 
2923.000000	88.856029 
2922.000000	88.908376 
2921.000000	88.963113 
2920.000000	89.021789 
2919.000000	89.084805 
2918.000000	89.150170 
2917.000000	89.215308 
2916.000000	89.279162 
2915.000000	89.341451 
2914.000000	89.401096 
2913.000000	89.456971 
2912.000000	89.509683 
2911.000000	89.561346 
2910.000000	89.613859 
2909.000000	89.667939 
2908.000000	89.722826 
2907.000000	89.775858 
2906.000000	89.823328 
2905.000000	89.863433 
2904.000000	89.898436 
2903.000000	89.932715 
2902.000000	89.968924 
2901.000000	90.005726 
2900.000000	90.039243 
2899.000000	90.065890 
2898.000000	90.084473 
2897.000000	90.097077 
2896.000000	90.107737 
2895.000000	90.119351 
2894.000000	90.131598 
2893.000000	90.142068 
2892.000000	90.149157 
2891.000000	90.153582 
2890.000000	90.157532 
2889.000000	90.162736 
2888.000000	90.168856 
2887.000000	90.173324 
2886.000000	90.173487 
2885.000000	90.169748 
2884.000000	90.166219 
2883.000000	90.167628 
2882.000000	90.175930 
2881.000000	90.190146 
2880.000000	90.208414 
2879.000000	90.229043 
2878.000000	90.250274 
2877.000000	90.270746 
2876.000000	90.290542 
2875.000000	90.310843 
2874.000000	90.332160 
2873.000000	90.353338 
2872.000000	90.372262 
2871.000000	90.387051 
2870.000000	90.396994 
2869.000000	90.403415 
2868.000000	90.409564 
2867.000000	90.418316 
2866.000000	90.429222 
2865.000000	90.438652 
2864.000000	90.443570 
2863.000000	90.444669 
2862.000000	90.445107 
2861.000000	90.446745 
2860.000000	90.448601 
2859.000000	90.448841 
2858.000000	90.447233 
2857.000000	90.445330 
2856.000000	90.445117 
2855.000000	90.447966 
2854.000000	90.454249 
2853.000000	90.463006 
2852.000000	90.472087 
2851.000000	90.479527 
2850.000000	90.485118 
2849.000000	90.490196 
2848.000000	90.495642 
2847.000000	90.500674 
2846.000000	90.504038 
2845.000000	90.505820 
2844.000000	90.507285 
2843.000000	90.509078 
2842.000000	90.510340 
2841.000000	90.509726 
2840.000000	90.506726 
2839.000000	90.501751 
2838.000000	90.495353 
2837.000000	90.487604 
2836.000000	90.477844 
2835.000000	90.464620 
2834.000000	90.446033 
2833.000000	90.420583 
2832.000000	90.387954 
2831.000000	90.349134 
2830.000000	90.305971 
2829.000000	90.260499 
2828.000000	90.214126 
2827.000000	90.166928 
2826.000000	90.117657 
2825.000000	90.064905 
2824.000000	90.008739 
2823.000000	89.951269 
2822.000000	89.895231 
2821.000000	89.841810 
2820.000000	89.790157 
2819.000000	89.739250 
2818.000000	89.689658 
2817.000000	89.642749 
2816.000000	89.598664 
2815.000000	89.556353 
2814.000000	89.515887 
2813.000000	89.479579 
2812.000000	89.450141 
2811.000000	89.428391 
2810.000000	89.413274 
2809.000000	89.403466 
2808.000000	89.398468 
2807.000000	89.398977 
2806.000000	89.406938 
2805.000000	89.424338 
2804.000000	89.450628 
2803.000000	89.481601 
2802.000000	89.511894 
2801.000000	89.538688 
2800.000000	89.562256 
2799.000000	89.583300 
2798.000000	89.600988 
2797.000000	89.613674 
2796.000000	89.620171 
2795.000000	89.619507 
2794.000000	89.610391 
2793.000000	89.592182 
2792.000000	89.566401 
2791.000000	89.536534 
2790.000000	89.506013 
2789.000000	89.476627 
2788.000000	89.448800 
2787.000000	89.422864 
2786.000000	89.399622 
2785.000000	89.379971 
2784.000000	89.364577 
2783.000000	89.354023 
2782.000000	89.348672 
2781.000000	89.348060 
2780.000000	89.350962 
2779.000000	89.356641 
2778.000000	89.365679 
2777.000000	89.378971 
2776.000000	89.396225 
2775.000000	89.416138 
2774.000000	89.437668 
2773.000000	89.460200 
2772.000000	89.482824 
2771.000000	89.504824 
2770.000000	89.527056 
2769.000000	89.551477 
2768.000000	89.578637 
2767.000000	89.606575 
2766.000000	89.632742 
2765.000000	89.656131 
2764.000000	89.676847 
2763.000000	89.694541 
2762.000000	89.708381 
2761.000000	89.718154 
2760.000000	89.724458 
2759.000000	89.727709 
2758.000000	89.727382 
2757.000000	89.722290 
2756.000000	89.711759 
2755.000000	89.697040 
2754.000000	89.681461 
2753.000000	89.668230 
2752.000000	89.657752 
2751.000000	89.647794 
2750.000000	89.636393 
2749.000000	89.623548 
2748.000000	89.609827 
2747.000000	89.594738 
2746.000000	89.577276 
2745.000000	89.556880 
2744.000000	89.532992 
2743.000000	89.504856 
2742.000000	89.472934 
2741.000000	89.439386 
2740.000000	89.405597 
2739.000000	89.369839 
2738.000000	89.328893 
2737.000000	89.281740 
2736.000000	89.230521 
2735.000000	89.178296 
2734.000000	89.127247 
2733.000000	89.079045 
2732.000000	89.035721 
2731.000000	88.999875 
2730.000000	88.974622 
2729.000000	88.963051 
2728.000000	88.966797 
2727.000000	88.985021 
2726.000000	89.015260 
2725.000000	89.055068 
2724.000000	89.102571 
2723.000000	89.156239 
2722.000000	89.215128 
2721.000000	89.279036 
2720.000000	89.347508 
2719.000000	89.418993 
2718.000000	89.491912 
2717.000000	89.566351 
2716.000000	89.643583 
2715.000000	89.723771 
2714.000000	89.805228 
2713.000000	89.886587 
2712.000000	89.969068 
2711.000000	90.055744 
2710.000000	90.148315 
2709.000000	90.244995 
2708.000000	90.341997 
2707.000000	90.437111 
2706.000000	90.531274 
2705.000000	90.626265 
2704.000000	90.721611 
2703.000000	90.814899 
2702.000000	90.904863 
2701.000000	90.992745 
2700.000000	91.080184 
2699.000000	91.166972 
2698.000000	91.251663 
2697.000000	91.333513 
2696.000000	91.413095 
2695.000000	91.491635 
2694.000000	91.570304 
2693.000000	91.649371 
2692.000000	91.727534 
2691.000000	91.803006 
2690.000000	91.875929 
2689.000000	91.948692 
2688.000000	92.023063 
2687.000000	92.098230 
2686.000000	92.172823 
2685.000000	92.247642 
2684.000000	92.324648 
2683.000000	92.403901 
2682.000000	92.483291 
2681.000000	92.561091 
2680.000000	92.637173 
2679.000000	92.711591 
2678.000000	92.783284 
2677.000000	92.850369 
2676.000000	92.910679 
2675.000000	92.962005 
2674.000000	93.002883 
2673.000000	93.033412 
2672.000000	93.054637 
2671.000000	93.067129 
2670.000000	93.070661 
2669.000000	93.064696 
2668.000000	93.048409 
2667.000000	93.020969 
2666.000000	92.983062 
2665.000000	92.937559 
2664.000000	92.887348 
2663.000000	92.833213 
2662.000000	92.775559 
2661.000000	92.717681 
2660.000000	92.664989 
2659.000000	92.620671 
2658.000000	92.583989 
2657.000000	92.553299 
2656.000000	92.528880 
2655.000000	92.512002 
2654.000000	92.502700 
2653.000000	92.499609 
2652.000000	92.501148 
2651.000000	92.506029 
2650.000000	92.513156 
2649.000000	92.521588 
2648.000000	92.530300 
2647.000000	92.537924 
2646.000000	92.542974 
2645.000000	92.543885 
2644.000000	92.538297 
2643.000000	92.523320 
2642.000000	92.497843 
2641.000000	92.463586 
2640.000000	92.421834 
2639.000000	92.369927 
2638.000000	92.303736 
2637.000000	92.223734 
2636.000000	92.135482 
2635.000000	92.042892 
2634.000000	91.943500 
2633.000000	91.832246 
2632.000000	91.708478 
2631.000000	91.577737 
2630.000000	91.447863 
2629.000000	91.324752 
2628.000000	91.210689 
2627.000000	91.104816 
2626.000000	91.004783 
2625.000000	90.908403 
2624.000000	90.814020 
2623.000000	90.720181 
2622.000000	90.626437 
2621.000000	90.534574 
2620.000000	90.447639 
2619.000000	90.367169 
2618.000000	90.292240 
2617.000000	90.221406 
2616.000000	90.154385 
2615.000000	90.091302 
2614.000000	90.031213 
2613.000000	89.971942 
2612.000000	89.910944 
2611.000000	89.846322 
2610.000000	89.777825 
2609.000000	89.707205 
2608.000000	89.637247 
2607.000000	89.570452 
2606.000000	89.508744 
2605.000000	89.453447 
2604.000000	89.404513 
2603.000000	89.360474 
2602.000000	89.320544 
2601.000000	89.286473 
2600.000000	89.260964 
2599.000000	89.244129 
2598.000000	89.232472 
2597.000000	89.221665 
2596.000000	89.210269 
2595.000000	89.201408 
2594.000000	89.201234 
2593.000000	89.214808 
2592.000000	89.242738 
2591.000000	89.282793 
2590.000000	89.335433 
2589.000000	89.406016 
2588.000000	89.499774 
2587.000000	89.615534 
2586.000000	89.745909 
2585.000000	89.882815 
2584.000000	90.021165 
2583.000000	90.158140 
2582.000000	90.291502 
2581.000000	90.419521 
2580.000000	90.541418 
2579.000000	90.657289 
2578.000000	90.767918 
2577.000000	90.874219 
2576.000000	90.976043 
2575.000000	91.072089 
2574.000000	91.162044 
2573.000000	91.248204 
2572.000000	91.333509 
2571.000000	91.418057 
2570.000000	91.498661 
2569.000000	91.571785 
2568.000000	91.636312 
2567.000000	91.694169 
2566.000000	91.749131 
2565.000000	91.804068 
2564.000000	91.858156 
2563.000000	91.907899 
2562.000000	91.952273 
2561.000000	91.995494 
2560.000000	92.042785 
2559.000000	92.094774 
2558.000000	92.148381 
2557.000000	92.202003 
2556.000000	92.257019 
2555.000000	92.315083 
2554.000000	92.377055 
2553.000000	92.443908 
2552.000000	92.514889 
2551.000000	92.584569 
2550.000000	92.645605 
2549.000000	92.696015 
2548.000000	92.741050 
2547.000000	92.786517 
2546.000000	92.832606 
2545.000000	92.875395 
2544.000000	92.911729 
2543.000000	92.940723 
2542.000000	92.962484 
2541.000000	92.977657 
2540.000000	92.987482 
2539.000000	92.993156 
2538.000000	92.995818 
2537.000000	92.997363 
2536.000000	92.999667 
2535.000000	93.002416 
2534.000000	93.003358 
2533.000000	93.001424 
2532.000000	92.998261 
2531.000000	92.996359 
2530.000000	92.997234 
2529.000000	93.001443 
2528.000000	93.007825 
2527.000000	93.011837 
2526.000000	93.007196 
2525.000000	92.991293 
2524.000000	92.967913 
2523.000000	92.943159 
2522.000000	92.919277 
2521.000000	92.893245 
2520.000000	92.860648 
2519.000000	92.820376 
2518.000000	92.776262 
2517.000000	92.734302 
2516.000000	92.697407 
2515.000000	92.663001 
2514.000000	92.626776 
2513.000000	92.588271 
2512.000000	92.551312 
2511.000000	92.519595 
2510.000000	92.493954 
2509.000000	92.473897 
2508.000000	92.459581 
2507.000000	92.451770 
2506.000000	92.451458 
2505.000000	92.459822 
2504.000000	92.477196 
2503.000000	92.502357 
2502.000000	92.534671 
2501.000000	92.576759 
2500.000000	92.632789 
2499.000000	92.703543 
2498.000000	92.784892 
2497.000000	92.871468 
2496.000000	92.960125 
2495.000000	93.049515 
2494.000000	93.138177 
2493.000000	93.224080 
2492.000000	93.304985 
2491.000000	93.378975 
2490.000000	93.446071 
2489.000000	93.509651 
2488.000000	93.574505 
2487.000000	93.642418 
2486.000000	93.710284 
2485.000000	93.772600 
2484.000000	93.825114 
2483.000000	93.867016 
2482.000000	93.901682 
2481.000000	93.934840 
2480.000000	93.969348 
2479.000000	94.001473 
2478.000000	94.024628 
2477.000000	94.036933 
2476.000000	94.042352 
2475.000000	94.044031 
2474.000000	94.040111 
2473.000000	94.028046 
2472.000000	94.010517 
2471.000000	93.994717 
2470.000000	93.987130 
2469.000000	93.990452 
2468.000000	94.004088 
2467.000000	94.025890 
2466.000000	94.054113 
2465.000000	94.088857 
2464.000000	94.131278 
2463.000000	94.181124 
2462.000000	94.235908 
2461.000000	94.292449 
2460.000000	94.347948 
2459.000000	94.399828 
2458.000000	94.446719 
2457.000000	94.490254 
2456.000000	94.533969 
2455.000000	94.579443 
2454.000000	94.624901 
2453.000000	94.668071 
2452.000000	94.708642 
2451.000000	94.747244 
2450.000000	94.783958 
2449.000000	94.818943 
2448.000000	94.853030 
2447.000000	94.886745 
2446.000000	94.920004 
2445.000000	94.953130 
2444.000000	94.986437 
2443.000000	95.018362 
2442.000000	95.046007 
2441.000000	95.068276 
2440.000000	95.086579 
2439.000000	95.101886 
2438.000000	95.113430 
2437.000000	95.121369 
2436.000000	95.128376 
2435.000000	95.137054 
2434.000000	95.147588 
2433.000000	95.159296 
2432.000000	95.172621 
2431.000000	95.187981 
2430.000000	95.204017 
2429.000000	95.218609 
2428.000000	95.230887 
2427.000000	95.241375 
2426.000000	95.251005 
2425.000000	95.260552 
2424.000000	95.270021 
2423.000000	95.278236 
2422.000000	95.283961 
2421.000000	95.287370 
2420.000000	95.289488 
2419.000000	95.291228 
2418.000000	95.294885 
2417.000000	95.305079 
2416.000000	95.324702 
2415.000000	95.350271 
2414.000000	95.375095 
2413.000000	95.397302 
2412.000000	95.420797 
2411.000000	95.447817 
2410.000000	95.475328 
2409.000000	95.500774 
2408.000000	95.526611 
2407.000000	95.555604 
2406.000000	95.585302 
2405.000000	95.611467 
2404.000000	95.634591 
2403.000000	95.658633 
2402.000000	95.684464 
2401.000000	95.708485 
2400.000000	95.727227 
2399.000000	95.739938 
2398.000000	95.746889 
2397.000000	95.748631 
2396.000000	95.747652 
2395.000000	95.747872 
2394.000000	95.750866 
2393.000000	95.753987 
2392.000000	95.753497 
2391.000000	95.748915 
2390.000000	95.743294 
2389.000000	95.739337 
2388.000000	95.735950 
2387.000000	95.729415 
2386.000000	95.718611 
2385.000000	95.708851 
2384.000000	95.709604 
2383.000000	95.727832 
2382.000000	95.763603 
2381.000000	95.811607 
2380.000000	95.865386 
2379.000000	95.919614 
2378.000000	95.970022 
2377.000000	96.012706 
2376.000000	96.043269 
2375.000000	96.057391 
2374.000000	96.054540 
2373.000000	96.041169 
2372.000000	96.027138 
2371.000000	96.018473 
2370.000000	96.017470 
2369.000000	96.028959 
2368.000000	96.057571 
2367.000000	96.096029 
2366.000000	96.126441 
2365.000000	96.139938 
2364.000000	96.146361 
2363.000000	96.157623 
2362.000000	96.170834 
2361.000000	96.175026 
2360.000000	96.166099 
2359.000000	96.153648 
2358.000000	96.154820 
2357.000000	96.182705 
2356.000000	96.231859 
2355.000000	96.279933 
2354.000000	96.310070 
2353.000000	96.321353 
2352.000000	96.321740 
2351.000000	96.316530 
2350.000000	96.310255 
2349.000000	96.311872 
2348.000000	96.325654 
2347.000000	96.342166 
2346.000000	96.342701 
2345.000000	96.327267 
2344.000000	96.315027 
2343.000000	96.316586 
2342.000000	96.332064 
2341.000000	96.359237 
2340.000000	96.395292 
2339.000000	96.432105 
2338.000000	96.461756 
2337.000000	96.480535 
2336.000000	96.487237 
2335.000000	96.478866 
2334.000000	96.455326 
2333.000000	96.421707 
2332.000000	96.389962 
2331.000000	96.371450 
2330.000000	96.367988 
2329.000000	96.368646 
2328.000000	96.355336 
2327.000000	96.319453 
2326.000000	96.267835 
2325.000000	96.220447 
2324.000000	96.197411 
2323.000000	96.205859 
2322.000000	96.238500 
2321.000000	96.278583 
2320.000000	96.311217 
2319.000000	96.327742 
2318.000000	96.330843 
2317.000000	96.331206 
2316.000000	96.337190 
2315.000000	96.344841 
2314.000000	96.342540 
2313.000000	96.324970 
2312.000000	96.298111 
2311.000000	96.270986 
2310.000000	96.247306 
2309.000000	96.227925 
2308.000000	96.214615 
2307.000000	96.207799 
2306.000000	96.202742 
2305.000000	96.191642 
2304.000000	96.169936 
2303.000000	96.139407 
2302.000000	96.107510 
2301.000000	96.082706 
2300.000000	96.068498 
2299.000000	96.060923 
2298.000000	96.053748 
2297.000000	96.045581 
2296.000000	96.038805 
2295.000000	96.034395 
2294.000000	96.031362 
2293.000000	96.031662 
2292.000000	96.038925 
2291.000000	96.052625 
2290.000000	96.068109 
2289.000000	96.084671 
2288.000000	96.107943 
2287.000000	96.142069 
2286.000000	96.184111 
2285.000000	96.228934 
2284.000000	96.274536 
2283.000000	96.318795 
2282.000000	96.356491 
2281.000000	96.384908 
2280.000000	96.408822 
2279.000000	96.433909 
2278.000000	96.459275 
2277.000000	96.482599 
2276.000000	96.509054 
2275.000000	96.546164 
2274.000000	96.590418 
2273.000000	96.627352 
2272.000000	96.647266 
2271.000000	96.655194 
2270.000000	96.662861 
2269.000000	96.675997 
2268.000000	96.692907 
2267.000000	96.711436 
2266.000000	96.731287 
2265.000000	96.749275 
2264.000000	96.756757 
2263.000000	96.745753 
2262.000000	96.717341 
2261.000000	96.681845 
2260.000000	96.649894 
2259.000000	96.625017 
2258.000000	96.605333 
2257.000000	96.588087 
2256.000000	96.569586 
2255.000000	96.543979 
2254.000000	96.507909 
2253.000000	96.465863 
2252.000000	96.426852 
2251.000000	96.396357 
2250.000000	96.374795 
2249.000000	96.362385 
2248.000000	96.360922 
2247.000000	96.371166 
2246.000000	96.391586 
2245.000000	96.419171 
2244.000000	96.450086 
2243.000000	96.482705 
2242.000000	96.522010 
2241.000000	96.575093 
2240.000000	96.637194 
2239.000000	96.688836 
2238.000000	96.715953 
2237.000000	96.728520 
2236.000000	96.748588 
2235.000000	96.782444 
2234.000000	96.816413 
2233.000000	96.839303 
2232.000000	96.855850 
2231.000000	96.875609 
2230.000000	96.900592 
2229.000000	96.928059 
2228.000000	96.955528 
2227.000000	96.978680 
2226.000000	96.992771 
2225.000000	96.999686 
2224.000000	97.005931 
2223.000000	97.012388 
2222.000000	97.015885 
2221.000000	97.021918 
2220.000000	97.042800 
2219.000000	97.078906 
2218.000000	97.113817 
2217.000000	97.134122 
2216.000000	97.143858 
2215.000000	97.153586 
2214.000000	97.165733 
2213.000000	97.177191 
2212.000000	97.186111 
2211.000000	97.189174 
2210.000000	97.182007 
2209.000000	97.169819 
2208.000000	97.167986 
2207.000000	97.183622 
2206.000000	97.204287 
2205.000000	97.212400 
2204.000000	97.203990 
2203.000000	97.187275 
2202.000000	97.171567 
2201.000000	97.165057 
2200.000000	97.174796 
2199.000000	97.199642 
2198.000000	97.228320 
2197.000000	97.250658 
2196.000000	97.265377 
2195.000000	97.272478 
2194.000000	97.266443 
2193.000000	97.244096 
2192.000000	97.212424 
2191.000000	97.182390 
2190.000000	97.161034 
2189.000000	97.152761 
2188.000000	97.158766 
2187.000000	97.170700 
2186.000000	97.175702 
2185.000000	97.174522 
2184.000000	97.183810 
2183.000000	97.211084 
2182.000000	97.236935 
2181.000000	97.233209 
2180.000000	97.193190 
2179.000000	97.135736 
2178.000000	97.087496 
2177.000000	97.068293 
2176.000000	97.083212 
2175.000000	97.117814 
2174.000000	97.144526 
2173.000000	97.140526 
2172.000000	97.099827 
2171.000000	97.030560 
2170.000000	96.949389 
2169.000000	96.878471 
2168.000000	96.834493 
2167.000000	96.814543 
2166.000000	96.799954 
2165.000000	96.776661 
2164.000000	96.745214 
2163.000000	96.713241 
2162.000000	96.692562 
2161.000000	96.704178 
2160.000000	96.765586 
2159.000000	96.864181 
2158.000000	96.961214 
2157.000000	97.029381 
2156.000000	97.068004 
2155.000000	97.082416 
2154.000000	97.073164 
2153.000000	97.047420 
2152.000000	97.019746 
2151.000000	96.995390 
2150.000000	96.967321 
2149.000000	96.933850 
2148.000000	96.905480 
2147.000000	96.890588 
2146.000000	96.887118 
2145.000000	96.890570 
2144.000000	96.896629 
2143.000000	96.894581 
2142.000000	96.873736 
2141.000000	96.840179 
2140.000000	96.812063 
2139.000000	96.794016 
2138.000000	96.771587 
2137.000000	96.735631 
2136.000000	96.694830 
2135.000000	96.655264 
2134.000000	96.604490 
2133.000000	96.529565 
2132.000000	96.438498 
2131.000000	96.349774 
2130.000000	96.267887 
2129.000000	96.180284 
2128.000000	96.074848 
2127.000000	95.952281 
2126.000000	95.822574 
2125.000000	95.694990 
2124.000000	95.571434 
2123.000000	95.447181 
2122.000000	95.318253 
2121.000000	95.187451 
2120.000000	95.061069 
2119.000000	94.941317 
2118.000000	94.825965 
2117.000000	94.714202 
2116.000000	94.608540 
2115.000000	94.512322 
2114.000000	94.430158 
2113.000000	94.369254 
2112.000000	94.334512 
2111.000000	94.322692 
2110.000000	94.326026 
2109.000000	94.340752 
2108.000000	94.367957 
2107.000000	94.408059 
2106.000000	94.459938 
2105.000000	94.523701 
2104.000000	94.597733 
2103.000000	94.673748 
2102.000000	94.741812 
2101.000000	94.801726 
2100.000000	94.864334 
2099.000000	94.940435 
2098.000000	95.032056 
2097.000000	95.132645 
2096.000000	95.229925 
2095.000000	95.310718 
2094.000000	95.371131 
2093.000000	95.422183 
2092.000000	95.478076 
2091.000000	95.539179 
2090.000000	95.593830 
2089.000000	95.635959 
2088.000000	95.671300 
2087.000000	95.704736 
2086.000000	95.732040 
2085.000000	95.748394 
2084.000000	95.756563 
2083.000000	95.762231 
2082.000000	95.768657 
2081.000000	95.779706 
2080.000000	95.800241 
2079.000000	95.828507 
2078.000000	95.854214 
2077.000000	95.868482 
2076.000000	95.871569 
2075.000000	95.869802 
2074.000000	95.871497 
2073.000000	95.885712 
2072.000000	95.914514 
2071.000000	95.944941 
2070.000000	95.960621 
2069.000000	95.965933 
2068.000000	95.987060 
2067.000000	96.041798 
2066.000000	96.117039 
2065.000000	96.182737 
2064.000000	96.221662 
2063.000000	96.239684 
2062.000000	96.254876 
2061.000000	96.284360 
2060.000000	96.334048 
2059.000000	96.393135 
2058.000000	96.443401 
2057.000000	96.478511 
2056.000000	96.508342 
2055.000000	96.541150 
2054.000000	96.570406 
2053.000000	96.585436 
2052.000000	96.587232 
2051.000000	96.587523 
2050.000000	96.598758 
2049.000000	96.628281 
2048.000000	96.673811 
2047.000000	96.721349 
2046.000000	96.756062 
2045.000000	96.778213 
2044.000000	96.799626 
2043.000000	96.823312 
2042.000000	96.838424 
2041.000000	96.837023 
2040.000000	96.821961 
2039.000000	96.796276 
2038.000000	96.761818 
2037.000000	96.731614 
2036.000000	96.723534 
2035.000000	96.735472 
2034.000000	96.746436 
2033.000000	96.748023 
2032.000000	96.752758 
2031.000000	96.765319 
2030.000000	96.772048 
2029.000000	96.770195 
2028.000000	96.782618 
2027.000000	96.828600 
2026.000000	96.898798 
2025.000000	96.971345 
2024.000000	97.035954 
2023.000000	97.091274 
2022.000000	97.136127 
2021.000000	97.175987 
2020.000000	97.221842 
2019.000000	97.271045 
2018.000000	97.304712 
2017.000000	97.314812 
2016.000000	97.317121 
2015.000000	97.326049 
2014.000000	97.335138 
2013.000000	97.333407 
2012.000000	97.324212 
2011.000000	97.319433 
2010.000000	97.331042 
2009.000000	97.373930 
2008.000000	97.455231 
2007.000000	97.551541 
2006.000000	97.618340 
2005.000000	97.634229 
2004.000000	97.618026 
2003.000000	97.595633 
2002.000000	97.573012 
2001.000000	97.548352 
2000.000000	97.527474 
1999.000000	97.514997 
1998.000000	97.506789 
1997.000000	97.501297 
1996.000000	97.502348 
1995.000000	97.503284 
1994.000000	97.486509 
1993.000000	97.449803 
1992.000000	97.416886 
1991.000000	97.409607 
1990.000000	97.426629 
1989.000000	97.457835 
1988.000000	97.496383 
1987.000000	97.528087 
1986.000000	97.534679 
1985.000000	97.521019 
1984.000000	97.514876 
1983.000000	97.524483 
1982.000000	97.522348 
1981.000000	97.491631 
1980.000000	97.464812 
1979.000000	97.486605 
1978.000000	97.552286 
1977.000000	97.615656 
1976.000000	97.649658 
1975.000000	97.664032 
1974.000000	97.672619 
1973.000000	97.678654 
1972.000000	97.685750 
1971.000000	97.697445 
1970.000000	97.709088 
1969.000000	97.714960 
1968.000000	97.716407 
1967.000000	97.712389 
1966.000000	97.695234 
1965.000000	97.668525 
1964.000000	97.654465 
1963.000000	97.670308 
1962.000000	97.708589 
1961.000000	97.748995 
1960.000000	97.777831 
1959.000000	97.788259 
1958.000000	97.777477 
1957.000000	97.754949 
1956.000000	97.738546 
1955.000000	97.733243 
1954.000000	97.727931 
1953.000000	97.719970 
1952.000000	97.723814 
1951.000000	97.745381 
1950.000000	97.767569 
1949.000000	97.774945 
1948.000000	97.776604 
1947.000000	97.788651 
1946.000000	97.807684 
1945.000000	97.818563 
1944.000000	97.818824 
1943.000000	97.820316 
1942.000000	97.832608 
1941.000000	97.856651 
1940.000000	97.889253 
1939.000000	97.922275 
1938.000000	97.942730 
1937.000000	97.944525 
1936.000000	97.935963 
1935.000000	97.929168 
1934.000000	97.929750 
1933.000000	97.941243 
1932.000000	97.966169 
1931.000000	97.996031 
1930.000000	98.012766 
1929.000000	98.008720 
1928.000000	97.996920 
1927.000000	97.993028 
1926.000000	97.997898 
1925.000000	98.004545 
1924.000000	98.010508 
1923.000000	98.016016 
1922.000000	98.018794 
1921.000000	98.019448 
1920.000000	98.024393 
1919.000000	98.036205 
1918.000000	98.048984 
1917.000000	98.058912 
1916.000000	98.069353 
1915.000000	98.080435 
1914.000000	98.084319 
1913.000000	98.077141 
1912.000000	98.066821 
1911.000000	98.063078 
1910.000000	98.067414 
1909.000000	98.077292 
1908.000000	98.090760 
1907.000000	98.101093 
1906.000000	98.099308 
1905.000000	98.088569 
1904.000000	98.084570 
1903.000000	98.095983 
1902.000000	98.113718 
1901.000000	98.124984 
1900.000000	98.127815 
1899.000000	98.124256 
1898.000000	98.111846 
1897.000000	98.092079 
1896.000000	98.076461 
1895.000000	98.074255 
1894.000000	98.081634 
1893.000000	98.090986 
1892.000000	98.101925 
1891.000000	98.114948 
1890.000000	98.124136 
1889.000000	98.126661 
1888.000000	98.130404 
1887.000000	98.142691 
1886.000000	98.160703 
1885.000000	98.179690 
1884.000000	98.201267 
1883.000000	98.226331 
1882.000000	98.247817 
1881.000000	98.259778 
1880.000000	98.267299 
1879.000000	98.277179 
1878.000000	98.285817 
1877.000000	98.286878 
1876.000000	98.283076 
1875.000000	98.280419 
1874.000000	98.278200 
1873.000000	98.273595 
1872.000000	98.269457 
1871.000000	98.269044 
1870.000000	98.268895 
1869.000000	98.267259 
1868.000000	98.272263 
1867.000000	98.289179 
1866.000000	98.309686 
1865.000000	98.322599 
1864.000000	98.325865 
1863.000000	98.322895 
1862.000000	98.314370 
1861.000000	98.301109 
1860.000000	98.289544 
1859.000000	98.285708 
1858.000000	98.287552 
1857.000000	98.289662 
1856.000000	98.290934 
1855.000000	98.291557 
1854.000000	98.287569 
1853.000000	98.274561 
1852.000000	98.255094 
1851.000000	98.235659 
1850.000000	98.219115 
1849.000000	98.207029 
1848.000000	98.203176 
1847.000000	98.209014 
1846.000000	98.218771 
1845.000000	98.224196 
1844.000000	98.223647 
1843.000000	98.219565 
1842.000000	98.211040 
1841.000000	98.199606 
1840.000000	98.193393 
1839.000000	98.197309 
1838.000000	98.207475 
1837.000000	98.218882 
1836.000000	98.231477 
1835.000000	98.244591 
1834.000000	98.253364 
1833.000000	98.257163 
1832.000000	98.264603 
1831.000000	98.281204 
1830.000000	98.299520 
1829.000000	98.311664 
1828.000000	98.320623 
1827.000000	98.331195 
1826.000000	98.339460 
1825.000000	98.340980 
1824.000000	98.342224 
1823.000000	98.351375 
1822.000000	98.366705 
1821.000000	98.383016 
1820.000000	98.400470 
1819.000000	98.420078 
1818.000000	98.437901 
1817.000000	98.449643 
1816.000000	98.454575 
1815.000000	98.451570 
1814.000000	98.437756 
1813.000000	98.416994 
1812.000000	98.401438 
1811.000000	98.397207 
1810.000000	98.397550 
1809.000000	98.395153 
1808.000000	98.391956 
1807.000000	98.390936 
1806.000000	98.386915 
1805.000000	98.373432 
1804.000000	98.353413 
1803.000000	98.336943 
1802.000000	98.330049 
1801.000000	98.331961 
1800.000000	98.338715 
1799.000000	98.343595 
1798.000000	98.340992 
1797.000000	98.333084 
1796.000000	98.328494 
1795.000000	98.331521 
1794.000000	98.335308 
1793.000000	98.331742 
1792.000000	98.326159 
1791.000000	98.328559 
1790.000000	98.336347 
1789.000000	98.340616 
1788.000000	98.339064 
1787.000000	98.334497 
1786.000000	98.329613 
1785.000000	98.327111 
1784.000000	98.329027 
1783.000000	98.332821 
1782.000000	98.330968 
1781.000000	98.321983 
1780.000000	98.315947 
1779.000000	98.318034 
1778.000000	98.317595 
1777.000000	98.302819 
1776.000000	98.279195 
1775.000000	98.262984 
1774.000000	98.257756 
1773.000000	98.248390 
1772.000000	98.225617 
1771.000000	98.195938 
1770.000000	98.164833 
1769.000000	98.135827 
1768.000000	98.115321 
1767.000000	98.104070 
1766.000000	98.092863 
1765.000000	98.074699 
1764.000000	98.053215 
1763.000000	98.032282 
1762.000000	98.007136 
1761.000000	97.975306 
1760.000000	97.944506 
1759.000000	97.922188 
1758.000000	97.905925 
1757.000000	97.887341 
1756.000000	97.863548 
1755.000000	97.833362 
1754.000000	97.792109 
1753.000000	97.741300 
1752.000000	97.695900 
1751.000000	97.670062 
1750.000000	97.657455 
1749.000000	97.642131 
1748.000000	97.621893 
1747.000000	97.602181 
1746.000000	97.579110 
1745.000000	97.549656 
1744.000000	97.525677 
1743.000000	97.519941 
1742.000000	97.526320 
1741.000000	97.527339 
1740.000000	97.515670 
1739.000000	97.498502 
1738.000000	97.482393 
1737.000000	97.472729 
1736.000000	97.483632 
1735.000000	97.523227 
1734.000000	97.573678 
1733.000000	97.607791 
1732.000000	97.618948 
1731.000000	97.618756 
1730.000000	97.617084 
1729.000000	97.616378 
1728.000000	97.618351 
1727.000000	97.622117 
1726.000000	97.622107 
1725.000000	97.617352 
1724.000000	97.616270 
1723.000000	97.623139 
1722.000000	97.630672 
1721.000000	97.632661 
1720.000000	97.635359 
1719.000000	97.645409 
1718.000000	97.658627 
1717.000000	97.673721 
1716.000000	97.697502 
1715.000000	97.732533 
1714.000000	97.774740 
1713.000000	97.819591 
1712.000000	97.866668 
1711.000000	97.916033 
1710.000000	97.962785 
1709.000000	98.002681 
1708.000000	98.040209 
1707.000000	98.079561 
1706.000000	98.112035 
1705.000000	98.128776 
1704.000000	98.135565 
1703.000000	98.148426 
1702.000000	98.175905 
1701.000000	98.203803 
1700.000000	98.219098 
1699.000000	98.225565 
1698.000000	98.225889 
1697.000000	98.224945 
1696.000000	98.229703 
1695.000000	98.239211 
1694.000000	98.242251 
1693.000000	98.231024 
1692.000000	98.212844 
1691.000000	98.194222 
1690.000000	98.171297 
1689.000000	98.141130 
1688.000000	98.114520 
1687.000000	98.103466 
1686.000000	98.100916 
1685.000000	98.077490 
1684.000000	98.031329 
1683.000000	97.996125 
1682.000000	97.970518 
1681.000000	97.937247 
1680.000000	97.904598 
1679.000000	97.883410 
1678.000000	97.867877 
1677.000000	97.843546 
1676.000000	97.811785 
1675.000000	97.786816 
1674.000000	97.766418 
1673.000000	97.736202 
1672.000000	97.701053 
1671.000000	97.674888 
1670.000000	97.652866 
1669.000000	97.620751 
1668.000000	97.584238 
1667.000000	97.554961 
1666.000000	97.524183 
1665.000000	97.475376 
1664.000000	97.403516 
1663.000000	97.314029 
1662.000000	97.205750 
1661.000000	97.069288 
1660.000000	96.907353 
1659.000000	96.728150 
1658.000000	96.523597 
1657.000000	96.286842 
1656.000000	96.020621 
1655.000000	95.704925 
1654.000000	95.215129 
1653.000000	94.513653 
1652.000000	93.850579 
1651.000000	93.368777 
1650.000000	92.968314 
1649.000000	92.551846 
1648.000000	92.096755 
1647.000000	91.679324 
1646.000000	91.381063 
1645.000000	91.194027 
1644.000000	91.074071 
1643.000000	90.998768 
1642.000000	90.936282 
1641.000000	90.840626 
1640.000000	90.695629 
1639.000000	90.513766 
1638.000000	90.274011 
1637.000000	89.890132 
1636.000000	89.306729 
1635.000000	88.615782 
1634.000000	87.922790 
1633.000000	87.207115 
1632.000000	86.421067 
1631.000000	85.553800 
1630.000000	84.584895 
1629.000000	83.477179 
1628.000000	82.261437 
1627.000000	81.054685 
1626.000000	79.916179 
1625.000000	78.779371 
1624.000000	77.591429 
1623.000000	76.461923 
1622.000000	75.554379 
1621.000000	74.882433 
1620.000000	74.362195 
1619.000000	73.947443 
1618.000000	73.619080 
1617.000000	73.336987 
1616.000000	73.086140 
1615.000000	72.907301 
1614.000000	72.820322 
1613.000000	72.809811 
1612.000000	72.893139 
1611.000000	73.130931 
1610.000000	73.544514 
1609.000000	74.061890 
1608.000000	74.576738 
1607.000000	75.008202 
1606.000000	75.286645 
1605.000000	75.346396 
1604.000000	75.167509 
1603.000000	74.793229 
1602.000000	74.281368 
1601.000000	73.660457 
1600.000000	72.955583 
1599.000000	72.218303 
1598.000000	71.491196 
1597.000000	70.774587 
1596.000000	70.065015 
1595.000000	69.393242 
1594.000000	68.781764 
1593.000000	68.201494 
1592.000000	67.617760 
1591.000000	67.042617 
1590.000000	66.502035 
1589.000000	65.994458 
1588.000000	65.528713 
1587.000000	65.163370 
1586.000000	64.955540 
1585.000000	64.901615 
1584.000000	64.977044 
1583.000000	65.191992 
1582.000000	65.547281 
1581.000000	65.978645 
1580.000000	66.415048 
1579.000000	66.864567 
1578.000000	67.394575 
1577.000000	68.039501 
1576.000000	68.739168 
1575.000000	69.392342 
1574.000000	69.951109 
1573.000000	70.430824 
1572.000000	70.883415 
1571.000000	71.378340 
1570.000000	71.939511 
1569.000000	72.488901 
1568.000000	72.943440 
1567.000000	73.323319 
1566.000000	73.695353 
1565.000000	74.079010 
1564.000000	74.447958 
1563.000000	74.784393 
1562.000000	75.108985 
1561.000000	75.465104 
1560.000000	75.911684 
1559.000000	76.467229 
1558.000000	77.015242 
1557.000000	77.437365 
1556.000000	77.763806 
1555.000000	78.079043 
1554.000000	78.410160 
1553.000000	78.723443 
1552.000000	78.990054 
1551.000000	79.235060 
1550.000000	79.493140 
1549.000000	79.756774 
1548.000000	79.996124 
1547.000000	80.216608 
1546.000000	80.455601 
1545.000000	80.737850 
1544.000000	81.058557 
1543.000000	81.412301 
1542.000000	81.816547 
1541.000000	82.290149 
1540.000000	82.813543 
1539.000000	83.325122 
1538.000000	83.768069 
1537.000000	84.135909 
1536.000000	84.466202 
1535.000000	84.805126 
1534.000000	85.166888 
1533.000000	85.512710 
1532.000000	85.796897 
1531.000000	86.010080 
1530.000000	86.155875 
1529.000000	86.221822 
1528.000000	86.186221 
1527.000000	86.031674 
1526.000000	85.757831 
1525.000000	85.388065 
1524.000000	84.941528 
1523.000000	84.398109 
1522.000000	83.749256 
1521.000000	83.114735 
1520.000000	82.662484 
1519.000000	82.423522 
1518.000000	82.344013 
1517.000000	82.396185 
1516.000000	82.558854 
1515.000000	82.782195 
1514.000000	83.012470 
1513.000000	83.212763 
1512.000000	83.348309 
1511.000000	83.397416 
1510.000000	83.367968 
1509.000000	83.286453 
1508.000000	83.182720 
1507.000000	83.113023 
1506.000000	83.151618 
1505.000000	83.299955 
1504.000000	83.505752 
1503.000000	83.748691 
1502.000000	84.034774 
1501.000000	84.364863 
1500.000000	84.724499 
1499.000000	85.101299 
1498.000000	85.499770 
1497.000000	85.925083 
1496.000000	86.357708 
1495.000000	86.765593 
1494.000000	87.134507 
1493.000000	87.469793 
1492.000000	87.788465 
1491.000000	88.115992 
1490.000000	88.468346 
1489.000000	88.831225 
1488.000000	89.177673 
1487.000000	89.497868 
1486.000000	89.790516 
1485.000000	90.044671 
1484.000000	90.256043 
1483.000000	90.441467 
1482.000000	90.619949 
1481.000000	90.793344 
1480.000000	90.955192 
1479.000000	91.106214 
1478.000000	91.245181 
1477.000000	91.360740 
1476.000000	91.446547 
1475.000000	91.509316 
1474.000000	91.542403 
1473.000000	91.516832 
1472.000000	91.426127 
1471.000000	91.287379 
1470.000000	91.086335 
1469.000000	90.782689 
1468.000000	90.350316 
1467.000000	89.776094 
1466.000000	89.051362 
1465.000000	88.236611 
1464.000000	87.507927 
1463.000000	87.001975 
1462.000000	86.665250 
1461.000000	86.329643 
1460.000000	85.812843 
1459.000000	84.928000 
1458.000000	83.492764 
1457.000000	81.650677 
1456.000000	80.043952 
1455.000000	79.147295 
1454.000000	78.938972 
1453.000000	79.283490 
1452.000000	80.059965 
1451.000000	81.090215 
1450.000000	82.188681 
1449.000000	83.249894 
1448.000000	84.214702 
1447.000000	85.029985 
1446.000000	85.697941 
1445.000000	86.284352 
1444.000000	86.861659 
1443.000000	87.470618 
1442.000000	88.115132 
1441.000000	88.759648 
1440.000000	89.350966 
1439.000000	89.866804 
1438.000000	90.331045 
1437.000000	90.757801 
1436.000000	91.104698 
1435.000000	91.337506 
1434.000000	91.484733 
1433.000000	91.583205 
1432.000000	91.636001 
1431.000000	91.636900 
1430.000000	91.594705 
1429.000000	91.517016 
1428.000000	91.394057 
1427.000000	91.214321 
1426.000000	90.964899 
1425.000000	90.616571 
1424.000000	90.152336 
1423.000000	89.593818 
1422.000000	88.931877 
1421.000000	88.047240 
1420.000000	86.763226 
1419.000000	85.064076 
1418.000000	83.169293 
1417.000000	81.259414 
1416.000000	79.363895 
1415.000000	77.523104 
1414.000000	75.843874 
1413.000000	74.464678 
1412.000000	73.551610 
1411.000000	73.249302 
1410.000000	73.566935 
1409.000000	74.380866 
1408.000000	75.558460 
1407.000000	77.006724 
1406.000000	78.628608 
1405.000000	80.298132 
1404.000000	81.879782 
1403.000000	83.274333 
1402.000000	84.468371 
1401.000000	85.526647 
1400.000000	86.518162 
1399.000000	87.443922 
1398.000000	88.258041 
1397.000000	88.953561 
1396.000000	89.573377 
1395.000000	90.148151 
1394.000000	90.664161 
1393.000000	91.095480 
1392.000000	91.441434 
1391.000000	91.722676 
1390.000000	91.963584 
1389.000000	92.180665 
1388.000000	92.376884 
1387.000000	92.546938 
1386.000000	92.685585 
1385.000000	92.783146 
1384.000000	92.816454 
1383.000000	92.745775 
1382.000000	92.518276 
1381.000000	92.091343 
1380.000000	91.491111 
1379.000000	90.862603 
1378.000000	90.404838 
1377.000000	90.206879 
1376.000000	90.172706 
1375.000000	90.111717 
1374.000000	89.877357 
1373.000000	89.419780 
1372.000000	88.727585 
1371.000000	87.768508 
1370.000000	86.500618 
1369.000000	84.915918 
1368.000000	83.075580 
1367.000000	81.098074 
1366.000000	79.093488 
1365.000000	77.124856 
1364.000000	75.268664 
1363.000000	73.706269 
1362.000000	72.667863 
1361.000000	72.236655 
1360.000000	72.289440 
1359.000000	72.637972 
1358.000000	73.164297 
1357.000000	73.853272 
1356.000000	74.748190 
1355.000000	75.872408 
1354.000000	77.177340 
1353.000000	78.562592 
1352.000000	79.935823 
1351.000000	81.242116 
1350.000000	82.452332 
1349.000000	83.548991 
1348.000000	84.527398 
1347.000000	85.396316 
1346.000000	86.170417 
1345.000000	86.861500 
1344.000000	87.475563 
1343.000000	88.017467 
1342.000000	88.499056 
1341.000000	88.940204 
1340.000000	89.357785 
1339.000000	89.754120 
1338.000000	90.121724 
1337.000000	90.457853 
1336.000000	90.767458 
1335.000000	91.055076 
1334.000000	91.320882 
1333.000000	91.563347 
1332.000000	91.781552 
1331.000000	91.975776 
1330.000000	92.148076 
1329.000000	92.300539 
1328.000000	92.431288 
1327.000000	92.534457 
1326.000000	92.605195 
1325.000000	92.641878 
1324.000000	92.642511 
1323.000000	92.600948 
1322.000000	92.506900 
1321.000000	92.347190 
1320.000000	92.106954 
1319.000000	91.771246 
1318.000000	91.322207 
1317.000000	90.728050 
1316.000000	89.932522 
1315.000000	88.857311 
1314.000000	87.421779 
1313.000000	85.578501 
1312.000000	83.352407 
1311.000000	80.857638 
1310.000000	78.281291 
1309.000000	75.859339 
1308.000000	73.855557 
1307.000000	72.507790 
1306.000000	71.943257 
1305.000000	72.138508 
1304.000000	72.953800 
1303.000000	74.186922 
1302.000000	75.620144 
1301.000000	77.073557 
1300.000000	78.443633 
1299.000000	79.697102 
1298.000000	80.837459 
1297.000000	81.879657 
1296.000000	82.839709 
1295.000000	83.728028 
1294.000000	84.546085 
1293.000000	85.291258 
1292.000000	85.964028 
1291.000000	86.569574 
1290.000000	87.115282 
1289.000000	87.608933 
1288.000000	88.057966 
1287.000000	88.468717 
1286.000000	88.845860 
1285.000000	89.192315 
1284.000000	89.509985 
1283.000000	89.801847 
1282.000000	90.073467 
1281.000000	90.330681 
1280.000000	90.575463 
1279.000000	90.806129 
1278.000000	91.022044 
1277.000000	91.226001 
1276.000000	91.421061 
1275.000000	91.607005 
1274.000000	91.781071 
1273.000000	91.941095 
1272.000000	92.087700 
1271.000000	92.224732 
1270.000000	92.357475 
1269.000000	92.488992 
1268.000000	92.618508 
1267.000000	92.743898 
1266.000000	92.863955 
1265.000000	92.976922 
1264.000000	93.079454 
1263.000000	93.170019 
1262.000000	93.251555 
1261.000000	93.327747 
1260.000000	93.398565 
1259.000000	93.462568 
1258.000000	93.521015 
1257.000000	93.575753 
1256.000000	93.624946 
1255.000000	93.664853 
1254.000000	93.694421 
1253.000000	93.714498 
1252.000000	93.723690 
1251.000000	93.718165 
1250.000000	93.693788 
1249.000000	93.644931 
1248.000000	93.562209 
1247.000000	93.432662 
1246.000000	93.237829 
1245.000000	92.947093 
1244.000000	92.514947 
1243.000000	91.888814 
1242.000000	91.022241 
1241.000000	89.894440 
1240.000000	88.547297 
1239.000000	87.123243 
1238.000000	85.852046 
1237.000000	84.970600 
1236.000000	84.628157 
1235.000000	84.831848 
1234.000000	85.457045 
1233.000000	86.318503 
1232.000000	87.252314 
1231.000000	88.154376 
1230.000000	88.974339 
1229.000000	89.695482 
1228.000000	90.318786 
1227.000000	90.854037 
1226.000000	91.315338 
1225.000000	91.716552 
1224.000000	92.065555 
1223.000000	92.361441 
1222.000000	92.597799 
1221.000000	92.770573 
1220.000000	92.887478 
1219.000000	92.973493 
1218.000000	93.063241 
1217.000000	93.180929 
1216.000000	93.326214 
1215.000000	93.480725 
1214.000000	93.626242 
1213.000000	93.754635 
1212.000000	93.864687 
1211.000000	93.957049 
1210.000000	94.033630 
1209.000000	94.097407 
1208.000000	94.151565 
1207.000000	94.200721 
1206.000000	94.251278 
1205.000000	94.307060 
1204.000000	94.365985 
1203.000000	94.424444 
1202.000000	94.483242 
1201.000000	94.545504 
1200.000000	94.610579 
1199.000000	94.674628 
1198.000000	94.736205 
1197.000000	94.796901 
1196.000000	94.857151 
1195.000000	94.915559 
1194.000000	94.971869 
1193.000000	95.026786 
1192.000000	95.079298 
1191.000000	95.127719 
1190.000000	95.172736 
1189.000000	95.216129 
1188.000000	95.257336 
1187.000000	95.294476 
1186.000000	95.327710 
1185.000000	95.358516 
1184.000000	95.386902 
1183.000000	95.412050 
1182.000000	95.433899 
1181.000000	95.451462 
1180.000000	95.462307 
1179.000000	95.467067 
1178.000000	95.471322 
1177.000000	95.478623 
1176.000000	95.484173 
1175.000000	95.479771 
1174.000000	95.463090 
1173.000000	95.438184 
1172.000000	95.409262 
1171.000000	95.378162 
1170.000000	95.345298 
1169.000000	95.308231 
1168.000000	95.260864 
1167.000000	95.197935 
1166.000000	95.118614 
1165.000000	95.022290 
1164.000000	94.902831 
1163.000000	94.749538 
1162.000000	94.549766 
1161.000000	94.285794 
1160.000000	93.931364 
1159.000000	93.455868 
1158.000000	92.833024 
1157.000000	92.050684 
1156.000000	91.127252 
1155.000000	90.129765 
1154.000000	89.171221 
1153.000000	88.380427 
1152.000000	87.864524 
1151.000000	87.678734 
1150.000000	87.810566 
1149.000000	88.192666 
1148.000000	88.739402 
1147.000000	89.377501 
1146.000000	90.054091 
1145.000000	90.730545 
1144.000000	91.375461 
1143.000000	91.963884 
1142.000000	92.482178 
1141.000000	92.930485 
1140.000000	93.317309 
1139.000000	93.651727 
1138.000000	93.940410 
1137.000000	94.188719 
1136.000000	94.402036 
1135.000000	94.586304 
1134.000000	94.747173 
1133.000000	94.887543 
1132.000000	95.006695 
1131.000000	95.103471 
1130.000000	95.179507 
1129.000000	95.237456 
1128.000000	95.276445 
1127.000000	95.290049 
1126.000000	95.266516 
1125.000000	95.188041 
1124.000000	95.029314 
1123.000000	94.755588 
1122.000000	94.314870 
1121.000000	93.621261 
1120.000000	92.544874 
1119.000000	90.941961 
1118.000000	88.748615 
1117.000000	86.107002 
1116.000000	83.424562 
1115.000000	81.253747 
1114.000000	80.015132 
1113.000000	79.793222 
1112.000000	80.390137 
1111.000000	81.531059 
1110.000000	82.998935 
1109.000000	84.632784 
1108.000000	86.280695 
1107.000000	87.799071 
1106.000000	89.094999 
1105.000000	90.147419 
1104.000000	90.981115 
1103.000000	91.632420 
1102.000000	92.137725 
1101.000000	92.533298 
1100.000000	92.852838 
1099.000000	93.126319 
1098.000000	93.378488 
1097.000000	93.620777 
1096.000000	93.847486 
1095.000000	94.048264 
1094.000000	94.223407 
1093.000000	94.380673 
1092.000000	94.521657 
1091.000000	94.642165 
1090.000000	94.744973 
1089.000000	94.841611 
1088.000000	94.939796 
1087.000000	95.036271 
1086.000000	95.123192 
1085.000000	95.196301 
1084.000000	95.256771 
1083.000000	95.310119 
1082.000000	95.363208 
1081.000000	95.418510 
1080.000000	95.472609 
1079.000000	95.523021 
1078.000000	95.572893 
1077.000000	95.625020 
1076.000000	95.675519 
1075.000000	95.718729 
1074.000000	95.754911 
1073.000000	95.788162 
1072.000000	95.820341 
1071.000000	95.851611 
1070.000000	95.882836 
1069.000000	95.912978 
1068.000000	95.938731 
1067.000000	95.961097 
1066.000000	95.987050 
1065.000000	96.019719 
1064.000000	96.052244 
1063.000000	96.076474 
1062.000000	96.092568 
1061.000000	96.105348 
1060.000000	96.117282 
1059.000000	96.130319 
1058.000000	96.147937 
1057.000000	96.169310 
1056.000000	96.187746 
1055.000000	96.200900 
1054.000000	96.216216 
1053.000000	96.240128 
1052.000000	96.268852 
1051.000000	96.296944 
1050.000000	96.326489 
1049.000000	96.358738 
1048.000000	96.386377 
1047.000000	96.404578 
1046.000000	96.419785 
1045.000000	96.437411 
1044.000000	96.451499 
1043.000000	96.458280 
1042.000000	96.470712 
1041.000000	96.504641 
1040.000000	96.554808 
1039.000000	96.598150 
1038.000000	96.619151 
1037.000000	96.620955 
1036.000000	96.614506 
1035.000000	96.608785 
1034.000000	96.609031 
1033.000000	96.611724 
1032.000000	96.601843 
1031.000000	96.565539 
1030.000000	96.503270 
1029.000000	96.418928 
1028.000000	96.298058 
1027.000000	96.106533 
1026.000000	95.801435 
1025.000000	95.323206 
1024.000000	94.586302 
1023.000000	93.521337 
1022.000000	92.156989 
1021.000000	90.644454 
1020.000000	89.161513 
1019.000000	87.762568 
1018.000000	86.322712 
1017.000000	84.663092 
1016.000000	82.770020 
1015.000000	80.907332 
1014.000000	79.505330 
1013.000000	78.917987 
1012.000000	79.246188 
1011.000000	80.324864 
1010.000000	81.840457 
1009.000000	83.488935 
1008.000000	85.073790 
1007.000000	86.505937 
1006.000000	87.757031 
1005.000000	88.826076 
1004.000000	89.727389 
1003.000000	90.483090 
1002.000000	91.116093 
1001.000000	91.647481 
1000.000000	92.096300 
999.000000	 92.478673 
998.000000	 92.807749 
997.000000	 93.095250 
996.000000	 93.351386 
995.000000	 93.582078 
994.000000	 93.787822 
993.000000	 93.967339 
992.000000	 94.122102 
991.000000	 94.256074 
990.000000	 94.371902 
989.000000	 94.470077 
988.000000	 94.552708 
987.000000	 94.625596 
986.000000	 94.694579 
985.000000	 94.761757 
984.000000	 94.827607 
983.000000	 94.894331 
982.000000	 94.963162 
981.000000	 95.029652 
980.000000	 95.086013 
979.000000	 95.128184 
978.000000	 95.157464 
977.000000	 95.176508 
976.000000	 95.188718 
975.000000	 95.201056 
974.000000	 95.220941 
973.000000	 95.248311 
972.000000	 95.275540 
971.000000	 95.296717 
970.000000	 95.312315 
969.000000	 95.323474 
968.000000	 95.327616 
967.000000	 95.322705 
966.000000	 95.310759 
965.000000	 95.293846 
964.000000	 95.271450 
963.000000	 95.245458 
962.000000	 95.223031 
961.000000	 95.209899 
960.000000	 95.203841 
959.000000	 95.198342 
958.000000	 95.189860 
957.000000	 95.178387 
956.000000	 95.163766 
955.000000	 95.144775 
954.000000	 95.119939 
953.000000	 95.087819 
952.000000	 95.050071 
951.000000	 95.015645 
950.000000	 94.996537 
949.000000	 94.995567 
948.000000	 95.002312 
947.000000	 95.004533 
946.000000	 94.999823 
945.000000	 94.992647 
944.000000	 94.984930 
943.000000	 94.975698 
942.000000	 94.967249 
941.000000	 94.965258 
940.000000	 94.972780 
939.000000	 94.988096 
938.000000	 95.007857 
937.000000	 95.028427 
936.000000	 95.044021 
935.000000	 95.047379 
934.000000	 95.034387 
933.000000	 95.006570 
932.000000	 94.967275 
931.000000	 94.914648 
930.000000	 94.837454 
929.000000	 94.716768 
928.000000	 94.530203 
927.000000	 94.251766 
926.000000	 93.845478 
925.000000	 93.260902 
924.000000	 92.442430 
923.000000	 91.358912 
922.000000	 90.051748 
921.000000	 88.684026 
920.000000	 87.544120 
919.000000	 86.949616 
918.000000	 87.076770 
917.000000	 87.852249 
916.000000	 89.010007 
915.000000	 90.253419 
914.000000	 91.384145 
913.000000	 92.325615 
912.000000	 93.075488 
911.000000	 93.659399 
910.000000	 94.111561 
909.000000	 94.465003 
908.000000	 94.744497 
907.000000	 94.968673 
906.000000	 95.153927 
905.000000	 95.309779 
904.000000	 95.435757 
903.000000	 95.530987 
902.000000	 95.603555 
901.000000	 95.664870 
900.000000	 95.720464 
899.000000	 95.772763 
898.000000	 95.826180 
897.000000	 95.880990 
896.000000	 95.928522 
895.000000	 95.962085 
894.000000	 95.988370 
893.000000	 96.018783 
892.000000	 96.053811 
891.000000	 96.085930 
890.000000	 96.114350 
889.000000	 96.145527 
888.000000	 96.179957 
887.000000	 96.209245 
886.000000	 96.228160 
885.000000	 96.241629 
884.000000	 96.257547 
883.000000	 96.278406 
882.000000	 96.301570 
881.000000	 96.323364 
880.000000	 96.342078 
879.000000	 96.359908 
878.000000	 96.380976 
877.000000	 96.404958 
876.000000	 96.425717 
875.000000	 96.439646 
874.000000	 96.451249 
873.000000	 96.466044 
872.000000	 96.482364 
871.000000	 96.495062 
870.000000	 96.502545 
869.000000	 96.504347 
868.000000	 96.495957 
867.000000	 96.472092 
866.000000	 96.431523 
865.000000	 96.372751 
864.000000	 96.287833 
863.000000	 96.165567 
862.000000	 95.996695 
861.000000	 95.768469 
860.000000	 95.453611 
859.000000	 95.004974 
858.000000	 94.352942 
857.000000	 93.401206 
856.000000	 92.037327 
855.000000	 90.179823 
854.000000	 87.853306 
853.000000	 85.249967 
852.000000	 82.727811 
851.000000	 80.710432 
850.000000	 79.518977 
849.000000	 79.260597 
848.000000	 79.856867 
847.000000	 81.136125 
846.000000	 82.881072 
845.000000	 84.837674 
844.000000	 86.748780 
843.000000	 88.421779 
842.000000	 89.777817 
841.000000	 90.837021 
840.000000	 91.661483 
839.000000	 92.313697 
838.000000	 92.844716 
837.000000	 93.287496 
836.000000	 93.653156 
835.000000	 93.946412 
834.000000	 94.185972 
833.000000	 94.398476 
832.000000	 94.594151 
831.000000	 94.762762 
830.000000	 94.896027 
829.000000	 95.002309 
828.000000	 95.096096 
827.000000	 95.183868 
826.000000	 95.264349 
825.000000	 95.334443 
824.000000	 95.392158 
823.000000	 95.440028 
822.000000	 95.485002 
821.000000	 95.529571 
820.000000	 95.568293 
819.000000	 95.599859 
818.000000	 95.635245 
817.000000	 95.684641 
816.000000	 95.742306 
815.000000	 95.794855 
814.000000	 95.839475 
813.000000	 95.881857 
812.000000	 95.920347 
811.000000	 95.947043 
810.000000	 95.964178 
809.000000	 95.984963 
808.000000	 96.015368 
807.000000	 96.046487 
806.000000	 96.067581 
805.000000	 96.077169 
804.000000	 96.079964 
803.000000	 96.082415 
802.000000	 96.092017 
801.000000	 96.110689 
800.000000	 96.127385 
799.000000	 96.127200 
798.000000	 96.109485 
797.000000	 96.087467 
796.000000	 96.069166 
795.000000	 96.049627 
794.000000	 96.023717 
793.000000	 95.994194 
792.000000	 95.961686 
791.000000	 95.917179 
790.000000	 95.852269 
789.000000	 95.770404 
788.000000	 95.680242 
787.000000	 95.580060 
786.000000	 95.453033 
785.000000	 95.276702 
784.000000	 95.034894 
783.000000	 94.720068 
782.000000	 94.321880 
781.000000	 93.812337 
780.000000	 93.148958 
779.000000	 92.301417 
778.000000	 91.275571 
777.000000	 90.109525 
776.000000	 88.855370 
775.000000	 87.577587 
774.000000	 86.370573 
773.000000	 85.370775 
772.000000	 84.739784 
771.000000	 84.610392 
770.000000	 85.019476 
769.000000	 85.881009 
768.000000	 87.025202 
767.000000	 88.269401 
766.000000	 89.471849 
765.000000	 90.548880 
764.000000	 91.465876 
763.000000	 92.222385 
762.000000	 92.838705 
761.000000	 93.339816 
760.000000	 93.743343 
759.000000	 94.063552 
758.000000	 94.321760 
757.000000	 94.541564 
756.000000	 94.733311 
755.000000	 94.893432 
754.000000	 95.021445 
753.000000	 95.129180 
752.000000	 95.230887 
751.000000	 95.332560 
750.000000	 95.434266 
749.000000	 95.535884 
748.000000	 95.636429 
747.000000	 95.732529 
746.000000	 95.820673 
745.000000	 95.898053 
744.000000	 95.961639 
743.000000	 96.011528 
742.000000	 96.054436 
741.000000	 96.097827 
740.000000	 96.141395 
739.000000	 96.180522 
738.000000	 96.215885 
737.000000	 96.251149 
736.000000	 96.283124 
735.000000	 96.305449 
734.000000	 96.322781 
733.000000	 96.349143 
732.000000	 96.388195 
731.000000	 96.425846 
730.000000	 96.447674 
729.000000	 96.454202 
728.000000	 96.454798 
727.000000	 96.455304 
726.000000	 96.458259 
725.000000	 96.469042 
724.000000	 96.491091 
723.000000	 96.516469 
722.000000	 96.530660 
721.000000	 96.530767 
720.000000	 96.533591 
719.000000	 96.556478 
718.000000	 96.594239 
717.000000	 96.625972 
716.000000	 96.641201 
715.000000	 96.651940 
714.000000	 96.675608 
713.000000	 96.709233 
712.000000	 96.730652 
711.000000	 96.725781 
710.000000	 96.704702 
709.000000	 96.686736 
708.000000	 96.680423 
707.000000	 96.684902 
706.000000	 96.698725 
705.000000	 96.718203 
704.000000	 96.733405 
703.000000	 96.735083 
702.000000	 96.725870 
701.000000	 96.717407 
700.000000	 96.716908 
699.000000	 96.723212 
698.000000	 96.730197 
697.000000	 96.729872 
696.000000	 96.717288 
695.000000	 96.696800 
694.000000	 96.682000 
693.000000	 96.680607 
692.000000	 96.682794 
691.000000	 96.675012 
690.000000	 96.658811 
689.000000	 96.648823 
688.000000	 96.654176 
687.000000	 96.668816 
686.000000	 96.680778 
685.000000	 96.680788 
684.000000	 96.664385 
683.000000	 96.636870 
682.000000	 96.612539 
681.000000	 96.602445 
680.000000	 96.605248 
679.000000	 96.614912 
678.000000	 96.625373 
677.000000	 96.621103 
676.000000	 96.586134 
675.000000	 96.520702 
674.000000	 96.444757 
673.000000	 96.381093 
672.000000	 96.342951 
671.000000	 96.347518 
670.000000	 96.423853 
669.000000	 96.588418 
668.000000	 96.699753 
667.000000	 96.509756 
666.000000	 96.145584 
665.000000	 95.814619 
664.000000	 95.528620 
663.000000	 95.239472 
662.000000	 94.909510 
661.000000	 94.500249 
660.000000	 93.964779 
659.000000	 93.266519 
658.000000	 92.401641 
657.000000	 91.381477 
656.000000	 90.213901 
655.000000	 88.910688 
654.000000	 87.477185 
653.000000	 85.947944 
652.000000	 84.424263 
651.000000	 83.107224 
650.000000	 82.080586 

