PE IR                   SPECTRUM    ASCII       PEDS        1.60        
  -1
~SP.SP
18/03/23
17:16:51.00
18/03/23
17:16:51.00
pili
Irradiada
650.000000
4









SPECTRUM 100,CPU32 MAIN 00.02.8200 12-DECEMBER-2006 10:00:00
MIR TGS
MIR
OPTKBR
78890
0.200000

4.000000
STRONG
RATIO
SPECTRUM
MAGNITUDE
UNIVERSAL ATR
DOUBLE

COMBINED


0


#HDR
-1
-1
#GR
CM-1
%T
0.00002384185791015625
0.0
4000.000000
-1.000000
3351
8
100.631410
48.279711
#DATA
4000.000000	98.567855  
3999.000000	98.562149  
3998.000000	98.553398  
3997.000000	98.548684  
3996.000000	98.550744  
3995.000000	98.558951  
3994.000000	98.571426  
3993.000000	98.585730  
3992.000000	98.598255  
3991.000000	98.605004  
3990.000000	98.604000  
3989.000000	98.596343  
3988.000000	98.584483  
3987.000000	98.570302  
3986.000000	98.555544  
3985.000000	98.543045  
3984.000000	98.535728  
3983.000000	98.533799  
3982.000000	98.533880  
3981.000000	98.531805  
3980.000000	98.526472  
3979.000000	98.520790  
3978.000000	98.518998  
3977.000000	98.523054  
3976.000000	98.531138  
3975.000000	98.539098  
3974.000000	98.543201  
3973.000000	98.542040  
3972.000000	98.536725  
3971.000000	98.530134  
3970.000000	98.525736  
3969.000000	98.526165  
3968.000000	98.532025  
3967.000000	98.541908  
3966.000000	98.553419  
3965.000000	98.563850  
3964.000000	98.570118  
3963.000000	98.569456  
3962.000000	98.561722  
3961.000000	98.550995  
3960.000000	98.543497  
3959.000000	98.543088  
3958.000000	98.548336  
3957.000000	98.554351  
3956.000000	98.557496  
3955.000000	98.558701  
3954.000000	98.562226  
3953.000000	98.571026  
3952.000000	98.583539  
3951.000000	98.594810  
3950.000000	98.600624  
3949.000000	98.600572  
3948.000000	98.597697  
3947.000000	98.595819  
3946.000000	98.597068  
3945.000000	98.600869  
3944.000000	98.604872  
3943.000000	98.607432  
3942.000000	98.609200  
3941.000000	98.611376  
3940.000000	98.612861  
3939.000000	98.610740  
3938.000000	98.603760  
3937.000000	98.594561  
3936.000000	98.587132  
3935.000000	98.582323  
3934.000000	98.577260  
3933.000000	98.569388  
3932.000000	98.560356  
3931.000000	98.554372  
3930.000000	98.553557  
3929.000000	98.556628  
3928.000000	98.561131  
3927.000000	98.565466  
3926.000000	98.569252  
3925.000000	98.573354  
3924.000000	98.578864  
3923.000000	98.584997  
3922.000000	98.589258  
3921.000000	98.591067  
3920.000000	98.593685  
3919.000000	98.600662  
3918.000000	98.609965  
3917.000000	98.614313  
3916.000000	98.608331  
3915.000000	98.593888  
3914.000000	98.577620  
3913.000000	98.565706  
3912.000000	98.560295  
3911.000000	98.559891  
3910.000000	98.561410  
3909.000000	98.563143  
3908.000000	98.565588  
3907.000000	98.569693  
3906.000000	98.574312  
3905.000000	98.576618  
3904.000000	98.576506  
3903.000000	98.578296  
3902.000000	98.585484  
3901.000000	98.595145  
3900.000000	98.600216  
3899.000000	98.597081  
3898.000000	98.588673  
3897.000000	98.580556  
3896.000000	98.576252  
3895.000000	98.576688  
3894.000000	98.580346  
3893.000000	98.583868  
3892.000000	98.584268  
3891.000000	98.583720  
3890.000000	98.587747  
3889.000000	98.597955  
3888.000000	98.607747  
3887.000000	98.605685  
3886.000000	98.587616  
3885.000000	98.565267  
3884.000000	98.554964  
3883.000000	98.561649  
3882.000000	98.576437  
3881.000000	98.585715  
3880.000000	98.583434  
3879.000000	98.575122  
3878.000000	98.570295  
3877.000000	98.574462  
3876.000000	98.585678  
3875.000000	98.596973  
3874.000000	98.604427  
3873.000000	98.611246  
3872.000000	98.620811  
3871.000000	98.628753  
3870.000000	98.627302  
3869.000000	98.616204  
3868.000000	98.602188  
3867.000000	98.591119  
3866.000000	98.584638  
3865.000000	98.581531  
3864.000000	98.578817  
3863.000000	98.574290  
3862.000000	98.570163  
3861.000000	98.572928  
3860.000000	98.585007  
3859.000000	98.600144  
3858.000000	98.608273  
3857.000000	98.605185  
3856.000000	98.595929  
3855.000000	98.588058  
3854.000000	98.582317  
3853.000000	98.576877  
3852.000000	98.571501  
3851.000000	98.566124  
3850.000000	98.562617  
3849.000000	98.565123  
3848.000000	98.576247  
3847.000000	98.593151  
3846.000000	98.608380  
3845.000000	98.615509  
3844.000000	98.613642  
3843.000000	98.607960  
3842.000000	98.604433  
3841.000000	98.604502  
3840.000000	98.604704  
3839.000000	98.602312  
3838.000000	98.599073  
3837.000000	98.599022  
3836.000000	98.603819  
3835.000000	98.611180  
3834.000000	98.615891  
3833.000000	98.613142  
3832.000000	98.603439  
3831.000000	98.593578  
3830.000000	98.590328  
3829.000000	98.594106  
3828.000000	98.598423  
3827.000000	98.596438  
3826.000000	98.587861  
3825.000000	98.578640  
3824.000000	98.574406  
3823.000000	98.575652  
3822.000000	98.577305  
3821.000000	98.576331  
3820.000000	98.575850  
3819.000000	98.578409  
3818.000000	98.583106  
3817.000000	98.587709  
3816.000000	98.593126  
3815.000000	98.602228  
3814.000000	98.612930  
3813.000000	98.618520  
3812.000000	98.614548  
3811.000000	98.602571  
3810.000000	98.588339  
3809.000000	98.576994  
3808.000000	98.570460  
3807.000000	98.570514  
3806.000000	98.580110  
3805.000000	98.599833  
3804.000000	98.624913  
3803.000000	98.644720  
3802.000000	98.648486  
3801.000000	98.638532  
3800.000000	98.627745  
3799.000000	98.624483  
3798.000000	98.628008  
3797.000000	98.632481  
3796.000000	98.633128  
3795.000000	98.629281  
3794.000000	98.623565  
3793.000000	98.619445  
3792.000000	98.619532  
3791.000000	98.623932  
3790.000000	98.630532  
3789.000000	98.637654  
3788.000000	98.645641  
3787.000000	98.654309  
3786.000000	98.659800  
3785.000000	98.657024  
3784.000000	98.646183  
3783.000000	98.634476  
3782.000000	98.629917  
3781.000000	98.634294  
3780.000000	98.641580  
3779.000000	98.644182  
3778.000000	98.639126  
3777.000000	98.627553  
3776.000000	98.610778  
3775.000000	98.589872  
3774.000000	98.567645  
3773.000000	98.548572  
3772.000000	98.536024  
3771.000000	98.531346  
3770.000000	98.535770  
3769.000000	98.550786  
3768.000000	98.575142  
3767.000000	98.602700  
3766.000000	98.623968  
3765.000000	98.631318  
3764.000000	98.623697  
3763.000000	98.606620  
3762.000000	98.589560  
3761.000000	98.583910  
3760.000000	98.596427  
3759.000000	98.620585  
3758.000000	98.638817  
3757.000000	98.638982  
3756.000000	98.624311  
3755.000000	98.606324  
3754.000000	98.592866  
3753.000000	98.584045  
3752.000000	98.577148  
3751.000000	98.572273  
3750.000000	98.571727  
3749.000000	98.576362  
3748.000000	98.586293  
3747.000000	98.600700  
3746.000000	98.613953  
3745.000000	98.617910  
3744.000000	98.614209  
3743.000000	98.609585  
3742.000000	98.603416  
3741.000000	98.592943  
3740.000000	98.580789  
3739.000000	98.573363  
3738.000000	98.572018  
3737.000000	98.570524  
3736.000000	98.566190  
3735.000000	98.567233  
3734.000000	98.580804  
3733.000000	98.600650  
3732.000000	98.614290  
3731.000000	98.615539  
3730.000000	98.607345  
3729.000000	98.596405  
3728.000000	98.588299  
3727.000000	98.585830  
3726.000000	98.588109  
3725.000000	98.590115  
3724.000000	98.587610  
3723.000000	98.583177  
3722.000000	98.583792  
3721.000000	98.592478  
3720.000000	98.604724  
3719.000000	98.613878  
3718.000000	98.617643  
3717.000000	98.619339  
3716.000000	98.623165  
3715.000000	98.629212  
3714.000000	98.633569  
3713.000000	98.632683  
3712.000000	98.627351  
3711.000000	98.622181  
3710.000000	98.620216  
3709.000000	98.620585  
3708.000000	98.621594  
3707.000000	98.623389  
3706.000000	98.626956  
3705.000000	98.631147  
3704.000000	98.632263  
3703.000000	98.627328  
3702.000000	98.618328  
3701.000000	98.612135  
3700.000000	98.614922  
3699.000000	98.627091  
3698.000000	98.643057  
3697.000000	98.655183  
3696.000000	98.658471  
3695.000000	98.652404  
3694.000000	98.640681  
3693.000000	98.631259  
3692.000000	98.633792  
3691.000000	98.651987  
3690.000000	98.675889  
3689.000000	98.688190  
3688.000000	98.682337  
3687.000000	98.668929  
3686.000000	98.662600  
3685.000000	98.667959  
3684.000000	98.678973  
3683.000000	98.687517  
3682.000000	98.689871  
3681.000000	98.685383  
3680.000000	98.674655  
3679.000000	98.660478  
3678.000000	98.647577  
3677.000000	98.637501  
3676.000000	98.627783  
3675.000000	98.620422  
3674.000000	98.620986  
3673.000000	98.631802  
3672.000000	98.650811  
3671.000000	98.671880  
3670.000000	98.688351  
3669.000000	98.697508  
3668.000000	98.699206  
3667.000000	98.695292  
3666.000000	98.690936  
3665.000000	98.692547  
3664.000000	98.702088  
3663.000000	98.714082  
3662.000000	98.720605  
3661.000000	98.719762  
3660.000000	98.717418  
3659.000000	98.718962  
3658.000000	98.721662  
3657.000000	98.717034  
3656.000000	98.703256  
3655.000000	98.689019  
3654.000000	98.683919  
3653.000000	98.691093  
3652.000000	98.707637  
3651.000000	98.727267  
3650.000000	98.743835  
3649.000000	98.755323  
3648.000000	98.762798  
3647.000000	98.766801  
3646.000000	98.767240  
3645.000000	98.765645  
3644.000000	98.765080  
3643.000000	98.767485  
3642.000000	98.771013  
3641.000000	98.771155  
3640.000000	98.765103  
3639.000000	98.755062  
3638.000000	98.746868  
3637.000000	98.744267  
3636.000000	98.744863  
3635.000000	98.742500  
3634.000000	98.734786  
3633.000000	98.726916  
3632.000000	98.727502  
3631.000000	98.741298  
3630.000000	98.763959  
3629.000000	98.786515  
3628.000000	98.804429  
3627.000000	98.815610  
3626.000000	98.816930  
3625.000000	98.806874  
3624.000000	98.788640  
3623.000000	98.770498  
3622.000000	98.762079  
3621.000000	98.768909  
3620.000000	98.788466  
3619.000000	98.811409  
3618.000000	98.827955  
3617.000000	98.833352  
3616.000000	98.827844  
3615.000000	98.814288  
3614.000000	98.798569  
3613.000000	98.790503  
3612.000000	98.798893  
3611.000000	98.823766  
3610.000000	98.854730  
3609.000000	98.877893  
3608.000000	98.886312  
3607.000000	98.884330  
3606.000000	98.882186  
3605.000000	98.888549  
3604.000000	98.906553  
3603.000000	98.931540  
3602.000000	98.952390  
3601.000000	98.958807  
3600.000000	98.950114  
3599.000000	98.934731  
3598.000000	98.922435  
3597.000000	98.918134  
3596.000000	98.921731  
3595.000000	98.930350  
3594.000000	98.941067  
3593.000000	98.952301  
3592.000000	98.964242  
3591.000000	98.977303  
3590.000000	98.989139  
3589.000000	98.993884  
3588.000000	98.988062  
3587.000000	98.977802  
3586.000000	98.974451  
3585.000000	98.983743  
3584.000000	99.002776  
3583.000000	99.023456  
3582.000000	99.037034  
3581.000000	99.038173  
3580.000000	99.028206  
3579.000000	99.014435  
3578.000000	99.005154  
3577.000000	99.004223  
3576.000000	99.009046  
3575.000000	99.013257  
3574.000000	99.011503  
3573.000000	99.003762  
3572.000000	98.996386  
3571.000000	98.999112  
3570.000000	99.018564  
3569.000000	99.052075  
3568.000000	99.087607  
3567.000000	99.113713  
3566.000000	99.129345  
3565.000000	99.141266  
3564.000000	99.154909  
3563.000000	99.169657  
3562.000000	99.180195  
3561.000000	99.181659  
3560.000000	99.174985  
3559.000000	99.167550  
3558.000000	99.167514  
3557.000000	99.177607  
3556.000000	99.194492  
3555.000000	99.213221  
3554.000000	99.230797  
3553.000000	99.246026  
3552.000000	99.258403  
3551.000000	99.268383  
3550.000000	99.277298  
3549.000000	99.285173  
3548.000000	99.289271  
3547.000000	99.287279  
3546.000000	99.282580  
3545.000000	99.283240  
3544.000000	99.293395  
3543.000000	99.307989  
3542.000000	99.318039  
3541.000000	99.320559  
3540.000000	99.321914  
3539.000000	99.331639  
3538.000000	99.353539  
3537.000000	99.382302  
3536.000000	99.407343  
3535.000000	99.419727  
3534.000000	99.417529  
3533.000000	99.406643  
3532.000000	99.396588  
3531.000000	99.393588  
3530.000000	99.396255  
3529.000000	99.398542  
3528.000000	99.397489  
3527.000000	99.396934  
3526.000000	99.402729  
3525.000000	99.415771  
3524.000000	99.431329  
3523.000000	99.444995  
3522.000000	99.457084  
3521.000000	99.469851  
3520.000000	99.482116  
3519.000000	99.489586  
3518.000000	99.491210  
3517.000000	99.492580  
3516.000000	99.500733  
3515.000000	99.516752  
3514.000000	99.535578  
3513.000000	99.551994  
3512.000000	99.564022  
3511.000000	99.570848  
3510.000000	99.571180  
3509.000000	99.565654  
3508.000000	99.558631  
3507.000000	99.555135  
3506.000000	99.556689  
3505.000000	99.561067  
3504.000000	99.565377  
3503.000000	99.568663  
3502.000000	99.572223  
3501.000000	99.578052  
3500.000000	99.586173  
3499.000000	99.593014  
3498.000000	99.594136  
3497.000000	99.590066  
3496.000000	99.587485  
3495.000000	99.591896  
3494.000000	99.600358  
3493.000000	99.604192  
3492.000000	99.598450  
3491.000000	99.586215  
3490.000000	99.574428  
3489.000000	99.568128  
3488.000000	99.568755  
3487.000000	99.574702  
3486.000000	99.582137  
3485.000000	99.587795  
3484.000000	99.592549  
3483.000000	99.600400  
3482.000000	99.612286  
3481.000000	99.622821  
3480.000000	99.625755  
3479.000000	99.621293  
3478.000000	99.615310  
3477.000000	99.611815  
3476.000000	99.608964  
3475.000000	99.603325  
3474.000000	99.596477  
3473.000000	99.595429  
3472.000000	99.606151  
3471.000000	99.626946  
3470.000000	99.648443  
3469.000000	99.661041  
3468.000000	99.663556  
3467.000000	99.665024  
3466.000000	99.676696  
3465.000000	99.701197  
3464.000000	99.729447  
3463.000000	99.748517  
3462.000000	99.753331  
3461.000000	99.750784  
3460.000000	99.752273  
3459.000000	99.762114  
3458.000000	99.773526  
3457.000000	99.776371  
3456.000000	99.768490  
3455.000000	99.758364  
3454.000000	99.756183  
3453.000000	99.763337  
3452.000000	99.771881  
3451.000000	99.773001  
3450.000000	99.764647  
3449.000000	99.752132  
3448.000000	99.743843  
3447.000000	99.745968  
3446.000000	99.757871  
3445.000000	99.771187  
3444.000000	99.775244  
3443.000000	99.765246  
3442.000000	99.745496  
3441.000000	99.724680  
3440.000000	99.709490  
3439.000000	99.703372  
3438.000000	99.707781  
3437.000000	99.720595  
3436.000000	99.734446  
3435.000000	99.740995  
3434.000000	99.738137  
3433.000000	99.730931  
3432.000000	99.725016  
3431.000000	99.721497  
3430.000000	99.718794  
3429.000000	99.716049  
3428.000000	99.712407  
3427.000000	99.705657  
3426.000000	99.695177  
3425.000000	99.685351  
3424.000000	99.682783  
3423.000000	99.689576  
3422.000000	99.701153  
3421.000000	99.710910  
3420.000000	99.715242  
3419.000000	99.714183  
3418.000000	99.709603  
3417.000000	99.703515  
3416.000000	99.696146  
3415.000000	99.685025  
3414.000000	99.668242  
3413.000000	99.649705  
3412.000000	99.638568  
3411.000000	99.640820  
3410.000000	99.652633  
3409.000000	99.664305  
3408.000000	99.670095  
3407.000000	99.672037  
3406.000000	99.674203  
3405.000000	99.675974  
3404.000000	99.672482  
3403.000000	99.660378  
3402.000000	99.641741  
3401.000000	99.622349  
3400.000000	99.606926  
3399.000000	99.596135  
3398.000000	99.587196  
3397.000000	99.576698  
3396.000000	99.563154  
3395.000000	99.548196  
3394.000000	99.536286  
3393.000000	99.532809  
3392.000000	99.540852  
3391.000000	99.558558  
3390.000000	99.579097  
3389.000000	99.593297  
3388.000000	99.594009  
3387.000000	99.580888  
3386.000000	99.562583  
3385.000000	99.551990  
3384.000000	99.555806  
3383.000000	99.567911  
3382.000000	99.574754  
3381.000000	99.567899  
3380.000000	99.550720  
3379.000000	99.533921  
3378.000000	99.526361  
3377.000000	99.529748  
3376.000000	99.538916  
3375.000000	99.545579  
3374.000000	99.543771  
3373.000000	99.534040  
3372.000000	99.522522  
3371.000000	99.515456  
3370.000000	99.514986  
3369.000000	99.519663  
3368.000000	99.526774  
3367.000000	99.533265  
3366.000000	99.536307  
3365.000000	99.534858  
3364.000000	99.530399  
3363.000000	99.525837  
3362.000000	99.524612  
3361.000000	99.530140  
3360.000000	99.542781  
3359.000000	99.555984  
3358.000000	99.558942  
3357.000000	99.546787  
3356.000000	99.526605  
3355.000000	99.509578  
3354.000000	99.497677  
3353.000000	99.482661  
3352.000000	99.459227  
3351.000000	99.435403  
3350.000000	99.426719  
3349.000000	99.440707  
3348.000000	99.468572  
3347.000000	99.491502  
3346.000000	99.494903  
3345.000000	99.478564  
3344.000000	99.455856  
3343.000000	99.442845  
3342.000000	99.445342  
3341.000000	99.454512  
3340.000000	99.455305  
3339.000000	99.440373  
3338.000000	99.415940  
3337.000000	99.394235  
3336.000000	99.381720  
3335.000000	99.376032  
3334.000000	99.372727  
3333.000000	99.370554  
3332.000000	99.368525  
3331.000000	99.361870  
3330.000000	99.346183  
3329.000000	99.325469  
3328.000000	99.311375  
3327.000000	99.311779  
3326.000000	99.322447  
3325.000000	99.332073  
3324.000000	99.333294  
3323.000000	99.326162  
3322.000000	99.312970  
3321.000000	99.294582  
3320.000000	99.272831  
3319.000000	99.252522  
3318.000000	99.237708  
3317.000000	99.227086  
3316.000000	99.216023  
3315.000000	99.203379  
3314.000000	99.193855  
3313.000000	99.191760  
3312.000000	99.193622  
3311.000000	99.189219  
3310.000000	99.170707  
3309.000000	99.139872  
3308.000000	99.105885  
3307.000000	99.076696  
3306.000000	99.052941  
3305.000000	99.029185  
3304.000000	99.000382  
3303.000000	98.968010  
3302.000000	98.940500  
3301.000000	98.925978  
3300.000000	98.922927  
3299.000000	98.919128  
3298.000000	98.901929  
3297.000000	98.869345  
3296.000000	98.829856  
3295.000000	98.792675  
3294.000000	98.761125  
3293.000000	98.734595  
3292.000000	98.712459  
3291.000000	98.693967  
3290.000000	98.676864  
3289.000000	98.658948  
3288.000000	98.640427  
3287.000000	98.623175  
3286.000000	98.607830  
3285.000000	98.592373  
3284.000000	98.573366  
3283.000000	98.548861  
3282.000000	98.521166  
3281.000000	98.496432  
3280.000000	98.479609  
3279.000000	98.469411  
3278.000000	98.460085  
3277.000000	98.448664  
3276.000000	98.438383  
3275.000000	98.433664  
3274.000000	98.433346  
3273.000000	98.430316  
3272.000000	98.416746  
3271.000000	98.389171  
3270.000000	98.350792  
3269.000000	98.310776  
3268.000000	98.279476  
3267.000000	98.260987  
3266.000000	98.249568  
3265.000000	98.234646  
3264.000000	98.210217  
3263.000000	98.179921  
3262.000000	98.153945  
3261.000000	98.140888  
3260.000000	98.140367  
3259.000000	98.141711  
3258.000000	98.130837  
3257.000000	98.100668  
3256.000000	98.056085  
3255.000000	98.009106  
3254.000000	97.969594  
3253.000000	97.939787  
3252.000000	97.915553  
3251.000000	97.891277  
3250.000000	97.863874  
3249.000000	97.833122  
3248.000000	97.798875  
3247.000000	97.759594  
3246.000000	97.715468  
3245.000000	97.672387  
3244.000000	97.639795  
3243.000000	97.622852  
3242.000000	97.617419  
3241.000000	97.612696  
3240.000000	97.597833  
3239.000000	97.567613  
3238.000000	97.525591  
3237.000000	97.482678  
3236.000000	97.449272  
3235.000000	97.426093  
3234.000000	97.403904  
3233.000000	97.373369  
3232.000000	97.333785  
3231.000000	97.291763  
3230.000000	97.254277  
3229.000000	97.224522  
3228.000000	97.201285  
3227.000000	97.179274  
3226.000000	97.152114  
3225.000000	97.118375  
3224.000000	97.083681  
3223.000000	97.054127  
3222.000000	97.028440  
3221.000000	96.999361  
3220.000000	96.962109  
3219.000000	96.918634  
3218.000000	96.873811  
3217.000000	96.830780  
3216.000000	96.791020  
3215.000000	96.756148  
3214.000000	96.727254  
3213.000000	96.703173  
3212.000000	96.681103  
3211.000000	96.659150  
3210.000000	96.637317  
3209.000000	96.615229  
3208.000000	96.589289  
3207.000000	96.553930  
3206.000000	96.507447  
3205.000000	96.456052  
3204.000000	96.409754  
3203.000000	96.373226  
3202.000000	96.341890  
3201.000000	96.307206  
3200.000000	96.264211  
3199.000000	96.213875  
3198.000000	96.160927  
3197.000000	96.110807  
3196.000000	96.066031  
3195.000000	96.022719  
3194.000000	95.971859  
3193.000000	95.906777  
3192.000000	95.829747  
3191.000000	95.750178  
3190.000000	95.676750  
3189.000000	95.611957  
3188.000000	95.552387  
3187.000000	95.491718  
3186.000000	95.424016  
3185.000000	95.347358  
3184.000000	95.266172  
3183.000000	95.189131  
3182.000000	95.122653  
3181.000000	95.064840  
3180.000000	95.005575  
3179.000000	94.934130  
3178.000000	94.848444  
3177.000000	94.756519  
3176.000000	94.667575  
3175.000000	94.583022  
3174.000000	94.497751  
3173.000000	94.408021  
3172.000000	94.313962  
3171.000000	94.215479  
3170.000000	94.112148  
3169.000000	94.009644  
3168.000000	93.920296  
3167.000000	93.851262  
3166.000000	93.794038  
3165.000000	93.730909  
3164.000000	93.652223  
3163.000000	93.564397  
3162.000000	93.480944  
3161.000000	93.408004  
3160.000000	93.338487  
3159.000000	93.258285  
3158.000000	93.158690  
3157.000000	93.045010  
3156.000000	92.932792  
3155.000000	92.833659  
3154.000000	92.745063  
3153.000000	92.655158  
3152.000000	92.555941  
3151.000000	92.448526  
3150.000000	92.336940  
3149.000000	92.222134  
3148.000000	92.104204  
3147.000000	91.986769  
3146.000000	91.875211  
3145.000000	91.770906  
3144.000000	91.669426  
3143.000000	91.564980  
3142.000000	91.455782  
3141.000000	91.344698  
3140.000000	91.234967  
3139.000000	91.125848  
3138.000000	91.013149  
3137.000000	90.894359  
3136.000000	90.772474  
3135.000000	90.653579  
3134.000000	90.540321  
3133.000000	90.428111  
3132.000000	90.308012  
3131.000000	90.173711  
3130.000000	90.026529  
3129.000000	89.874379  
3128.000000	89.725637  
3127.000000	89.583079  
3126.000000	89.442629  
3125.000000	89.296709  
3124.000000	89.138230  
3123.000000	88.963247  
3122.000000	88.773202  
3121.000000	88.575472  
3120.000000	88.378836  
3119.000000	88.185874  
3118.000000	87.990762  
3117.000000	87.786171  
3116.000000	87.570828  
3115.000000	87.347941  
3114.000000	87.117602  
3113.000000	86.874882  
3112.000000	86.616681  
3111.000000	86.347568  
3110.000000	86.076393  
3109.000000	85.808253  
3108.000000	85.541920  
3107.000000	85.274659  
3106.000000	85.006963  
3105.000000	84.741347  
3104.000000	84.478085  
3103.000000	84.214251  
3102.000000	83.947082  
3101.000000	83.677141  
3100.000000	83.407863  
3099.000000	83.143116  
3098.000000	82.885688  
3097.000000	82.636824  
3096.000000	82.395838  
3095.000000	82.160524  
3094.000000	81.928907  
3093.000000	81.700650  
3092.000000	81.476845  
3091.000000	81.259391  
3090.000000	81.050743  
3089.000000	80.852510  
3088.000000	80.663068  
3087.000000	80.477946  
3086.000000	80.294408  
3085.000000	80.114965  
3084.000000	79.944886  
3083.000000	79.787032  
3082.000000	79.640508  
3081.000000	79.503149  
3080.000000	79.373130  
3079.000000	79.248829  
3078.000000	79.129904  
3077.000000	79.018781  
3076.000000	78.918744  
3075.000000	78.829618  
3074.000000	78.746909  
3073.000000	78.666303  
3072.000000	78.588588  
3071.000000	78.519793  
3070.000000	78.466584  
3069.000000	78.430657  
3068.000000	78.406372  
3067.000000	78.384457  
3066.000000	78.359391  
3065.000000	78.332978  
3064.000000	78.310052  
3063.000000	78.292313  
3062.000000	78.278842  
3061.000000	78.271523  
3060.000000	78.275901  
3059.000000	78.294887  
3058.000000	78.323909  
3057.000000	78.354861  
3056.000000	78.384659  
3055.000000	78.417997  
3054.000000	78.460842  
3053.000000	78.512221  
3052.000000	78.563765  
3051.000000	78.607906  
3050.000000	78.645508  
3049.000000	78.684206  
3048.000000	78.729984  
3047.000000	78.782495  
3046.000000	78.838170  
3045.000000	78.893920  
3044.000000	78.945690  
3043.000000	78.986680  
3042.000000	79.011196  
3041.000000	79.020039  
3040.000000	79.019646  
3039.000000	79.016304  
3038.000000	79.013035  
3037.000000	79.010501  
3036.000000	79.007273  
3035.000000	78.999130  
3034.000000	78.981582  
3033.000000	78.954560  
3032.000000	78.922831  
3031.000000	78.891303  
3030.000000	78.861864  
3029.000000	78.835219  
3028.000000	78.812868  
3027.000000	78.795173  
3026.000000	78.778724  
3025.000000	78.757840  
3024.000000	78.729454  
3023.000000	78.696724  
3022.000000	78.667878  
3021.000000	78.650598  
3020.000000	78.646063  
3019.000000	78.648593  
3018.000000	78.651960  
3017.000000	78.655199  
3016.000000	78.660724  
3015.000000	78.667969  
3014.000000	78.672181  
3013.000000	78.670111  
3012.000000	78.664419  
3011.000000	78.661008  
3010.000000	78.663061  
3009.000000	78.668105  
3008.000000	78.668842  
3007.000000	78.655133  
3006.000000	78.615819  
3005.000000	78.540770  
3004.000000	78.424731  
3003.000000	78.274265  
3002.000000	78.114969  
3001.000000	77.989815  
3000.000000	77.942086  
2999.000000	77.991641  
2998.000000	78.122821  
2997.000000	78.292641  
2996.000000	78.447886  
2995.000000	78.537122  
2994.000000	78.517668  
2993.000000	78.366617  
2992.000000	78.096038  
2991.000000	77.757793  
2990.000000	77.427067  
2989.000000	77.171081  
2988.000000	77.024549  
2987.000000	76.988369  
2986.000000	77.046182  
2985.000000	77.179421  
2984.000000	77.368937  
2983.000000	77.591066  
2982.000000	77.820643  
2981.000000	78.040002  
2980.000000	78.243454  
2979.000000	78.432790  
2978.000000	78.610696  
2977.000000	78.778675  
2976.000000	78.938676  
2975.000000	79.094970  
2974.000000	79.254952  
2973.000000	79.427901  
2972.000000	79.620262  
2971.000000	79.829948  
2970.000000	80.045806  
2969.000000	80.254370  
2968.000000	80.447656  
2967.000000	80.625117  
2966.000000	80.790024  
2965.000000	80.945805  
2964.000000	81.094857  
2963.000000	81.237698  
2962.000000	81.371282  
2961.000000	81.488951  
2960.000000	81.583880  
2959.000000	81.653260  
2958.000000	81.698257  
2957.000000	81.719313  
2956.000000	81.712359  
2955.000000	81.670963  
2954.000000	81.592438  
2953.000000	81.481223  
2952.000000	81.346666  
2951.000000	81.198918  
2950.000000	81.046841  
2949.000000	80.896845  
2948.000000	80.751008  
2947.000000	80.606784  
2946.000000	80.460898  
2945.000000	80.314280  
2944.000000	80.172185  
2943.000000	80.039362  
2942.000000	79.916409  
2941.000000	79.801976  
2940.000000	79.697942  
2939.000000	79.610932  
2938.000000	79.547473  
2937.000000	79.507527  
2936.000000	79.483934  
2935.000000	79.469103  
2934.000000	79.461606  
2933.000000	79.465416  
2932.000000	79.484327  
2931.000000	79.519311  
2930.000000	79.570257  
2929.000000	79.636526  
2928.000000	79.714685  
2927.000000	79.798523  
2926.000000	79.883072  
2925.000000	79.967256  
2924.000000	80.052083  
2923.000000	80.139006  
2922.000000	80.230935  
2921.000000	80.330871  
2920.000000	80.436384  
2919.000000	80.538257  
2918.000000	80.628824  
2917.000000	80.710809  
2916.000000	80.794374  
2915.000000	80.885715  
2914.000000	80.981662  
2913.000000	81.075666  
2912.000000	81.165576  
2911.000000	81.253803  
2910.000000	81.342110  
2909.000000	81.428756  
2908.000000	81.510581  
2907.000000	81.586468  
2906.000000	81.658166  
2905.000000	81.727959  
2904.000000	81.796035  
2903.000000	81.860186  
2902.000000	81.917632  
2901.000000	81.966060  
2900.000000	82.003874  
2899.000000	82.031379  
2898.000000	82.052032  
2897.000000	82.070531  
2896.000000	82.088322  
2895.000000	82.102319  
2894.000000	82.109060  
2893.000000	82.108807  
2892.000000	82.104721  
2891.000000	82.100164  
2890.000000	82.098351  
2889.000000	82.102303  
2888.000000	82.112195  
2887.000000	82.123688  
2886.000000	82.131661  
2885.000000	82.135841  
2884.000000	82.141414  
2883.000000	82.154766  
2882.000000	82.179840  
2881.000000	82.216886  
2880.000000	82.261943  
2879.000000	82.307936  
2878.000000	82.348871  
2877.000000	82.383706  
2876.000000	82.415221  
2875.000000	82.445872  
2874.000000	82.476226  
2873.000000	82.506133  
2872.000000	82.534973  
2871.000000	82.561073  
2870.000000	82.582993  
2869.000000	82.601096  
2868.000000	82.616127  
2867.000000	82.627278  
2866.000000	82.634111  
2865.000000	82.639318  
2864.000000	82.645930  
2863.000000	82.651706  
2862.000000	82.650153  
2861.000000	82.638465  
2860.000000	82.621668  
2859.000000	82.607369  
2858.000000	82.598706  
2857.000000	82.593953  
2856.000000	82.590808  
2855.000000	82.589186  
2854.000000	82.590738  
2853.000000	82.596711  
2852.000000	82.605542  
2851.000000	82.612312  
2850.000000	82.612252  
2849.000000	82.605740  
2848.000000	82.598564  
2847.000000	82.596198  
2846.000000	82.598490  
2845.000000	82.600468  
2844.000000	82.597299  
2843.000000	82.587855  
2842.000000	82.574337  
2841.000000	82.559082  
2840.000000	82.541320  
2839.000000	82.517010  
2838.000000	82.482685  
2837.000000	82.439433  
2836.000000	82.391832  
2835.000000	82.342667  
2834.000000	82.289785  
2833.000000	82.228416  
2832.000000	82.155237  
2831.000000	82.069665  
2830.000000	81.972826  
2829.000000	81.866856  
2828.000000	81.754752  
2827.000000	81.639452  
2826.000000	81.522688  
2825.000000	81.405168  
2824.000000	81.288003  
2823.000000	81.173461  
2822.000000	81.063840  
2821.000000	80.959651  
2820.000000	80.859454  
2819.000000	80.761832  
2818.000000	80.667065  
2817.000000	80.576443  
2816.000000	80.491020  
2815.000000	80.412425  
2814.000000	80.344097  
2813.000000	80.289280  
2812.000000	80.247365  
2811.000000	80.214516  
2810.000000	80.188846  
2809.000000	80.172960  
2808.000000	80.170152  
2807.000000	80.180025  
2806.000000	80.199611  
2805.000000	80.227298  
2804.000000	80.263830  
2803.000000	80.310270  
2802.000000	80.366057  
2801.000000	80.427559  
2800.000000	80.487189  
2799.000000	80.535878  
2798.000000	80.568747  
2797.000000	80.587332  
2796.000000	80.594865  
2795.000000	80.591402  
2794.000000	80.576043  
2793.000000	80.551719  
2792.000000	80.523488  
2791.000000	80.492502  
2790.000000	80.455597  
2789.000000	80.411729  
2788.000000	80.365593  
2787.000000	80.323566  
2786.000000	80.288560  
2785.000000	80.260296  
2784.000000	80.238374  
2783.000000	80.222866  
2782.000000	80.212781  
2781.000000	80.205936  
2780.000000	80.200908  
2779.000000	80.198669  
2778.000000	80.202040  
2777.000000	80.213231  
2776.000000	80.231843  
2775.000000	80.255812  
2774.000000	80.284320  
2773.000000	80.318362  
2772.000000	80.357525  
2771.000000	80.397788  
2770.000000	80.434518  
2769.000000	80.467199  
2768.000000	80.499531  
2767.000000	80.535165  
2766.000000	80.574648  
2765.000000	80.615651  
2764.000000	80.653977  
2763.000000	80.684318  
2762.000000	80.702330  
2761.000000	80.707115  
2760.000000	80.701094  
2759.000000	80.687555  
2758.000000	80.669108  
2757.000000	80.647661  
2756.000000	80.623729  
2755.000000	80.595618  
2754.000000	80.561205  
2753.000000	80.521230  
2752.000000	80.479572  
2751.000000	80.439863  
2750.000000	80.403075  
2749.000000	80.368574  
2748.000000	80.335639  
2747.000000	80.302632  
2746.000000	80.265805  
2745.000000	80.220834  
2744.000000	80.166342  
2743.000000	80.105526  
2742.000000	80.043550  
2741.000000	79.982367  
2740.000000	79.917816  
2739.000000	79.842678  
2738.000000	79.753494  
2737.000000	79.654338  
2736.000000	79.553830  
2735.000000	79.459529  
2734.000000	79.375743  
2733.000000	79.304969  
2732.000000	79.248938  
2731.000000	79.207939  
2730.000000	79.180730  
2729.000000	79.166200  
2728.000000	79.165156  
2727.000000	79.180415  
2726.000000	79.214981  
2725.000000	79.269550  
2724.000000	79.341569  
2723.000000	79.427182  
2722.000000	79.524094  
2721.000000	79.632036  
2720.000000	79.750885  
2719.000000	79.879540  
2718.000000	80.016397  
2717.000000	80.159347  
2716.000000	80.305592  
2715.000000	80.453776  
2714.000000	80.606570  
2713.000000	80.768324  
2712.000000	80.938863  
2711.000000	81.112234  
2710.000000	81.283698  
2709.000000	81.455664  
2708.000000	81.633974  
2707.000000	81.819923  
2706.000000	82.008812  
2705.000000	82.195242  
2704.000000	82.376714  
2703.000000	82.552666  
2702.000000	82.723721  
2701.000000	82.892729  
2700.000000	83.063627  
2699.000000	83.237521  
2698.000000	83.411210  
2697.000000	83.580404  
2696.000000	83.743329  
2695.000000	83.901123  
2694.000000	84.056572  
2693.000000	84.213157  
2692.000000	84.373430  
2691.000000	84.536885  
2690.000000	84.700342  
2689.000000	84.861456  
2688.000000	85.021118  
2687.000000	85.181696  
2686.000000	85.343912  
2685.000000	85.506409  
2684.000000	85.667564  
2683.000000	85.826430  
2682.000000	85.982078  
2681.000000	86.133179  
2680.000000	86.278674  
2679.000000	86.418350  
2678.000000	86.552103  
2677.000000	86.678350  
2676.000000	86.793369  
2675.000000	86.892861  
2674.000000	86.974529  
2673.000000	87.038695  
2672.000000	87.085932  
2671.000000	87.114717  
2670.000000	87.122391  
2669.000000	87.108319  
2668.000000	87.075201  
2667.000000	87.027136  
2666.000000	86.967026  
2665.000000	86.895972  
2664.000000	86.814519  
2663.000000	86.724072  
2662.000000	86.627406  
2661.000000	86.528470  
2660.000000	86.432348  
2659.000000	86.345359  
2658.000000	86.273656  
2657.000000	86.219981  
2656.000000	86.182030  
2655.000000	86.155382  
2654.000000	86.137736  
2653.000000	86.128850  
2652.000000	86.127521  
2651.000000	86.131706  
2650.000000	86.141247  
2649.000000	86.156381  
2648.000000	86.172558  
2647.000000	86.180830  
2646.000000	86.175679  
2645.000000	86.158999  
2644.000000	86.133841  
2643.000000	86.097732  
2642.000000	86.045290  
2641.000000	85.973788  
2640.000000	85.881732  
2639.000000	85.765166  
2638.000000	85.621339  
2637.000000	85.454948  
2636.000000	85.274973  
2635.000000	85.084909  
2634.000000	84.880626  
2633.000000	84.658550  
2632.000000	84.422377  
2631.000000	84.181181  
2630.000000	83.944108  
2629.000000	83.717140  
2628.000000	83.501690  
2627.000000	83.295340  
2626.000000	83.095688  
2625.000000	82.903300  
2624.000000	82.719562  
2623.000000	82.543368  
2622.000000	82.372485  
2621.000000	82.206611  
2620.000000	82.046200  
2619.000000	81.889808  
2618.000000	81.735561  
2617.000000	81.583674  
2616.000000	81.434698  
2615.000000	81.287384  
2614.000000	81.141263  
2613.000000	80.998505  
2612.000000	80.859369  
2611.000000	80.719050  
2610.000000	80.574313  
2609.000000	80.430650  
2608.000000	80.296981  
2607.000000	80.175231  
2606.000000	80.061578  
2605.000000	79.956561  
2604.000000	79.866329  
2603.000000	79.793234  
2602.000000	79.732022  
2601.000000	79.677332  
2600.000000	79.629877  
2599.000000	79.593433  
2598.000000	79.570086  
2597.000000	79.559975  
2596.000000	79.561856  
2595.000000	79.573029  
2594.000000	79.592819  
2593.000000	79.627279  
2592.000000	79.686536  
2591.000000	79.776140  
2590.000000	79.894180  
2589.000000	80.037113  
2588.000000	80.204128  
2587.000000	80.394744  
2586.000000	80.606528  
2585.000000	80.837214  
2584.000000	81.085316  
2583.000000	81.345873  
2582.000000	81.607991  
2581.000000	81.859327  
2580.000000	82.092629  
2579.000000	82.308035  
2578.000000	82.511677  
2577.000000	82.712514  
2576.000000	82.916765  
2575.000000	83.122436  
2574.000000	83.320168  
2573.000000	83.500333  
2572.000000	83.658599  
2571.000000	83.796218  
2570.000000	83.919176  
2569.000000	84.037660  
2568.000000	84.161488  
2567.000000	84.292805  
2566.000000	84.425215  
2565.000000	84.551570  
2564.000000	84.670261  
2563.000000	84.782985  
2562.000000	84.890319  
2561.000000	84.992804  
2560.000000	85.094254  
2559.000000	85.200604  
2558.000000	85.315503  
2557.000000	85.438059  
2556.000000	85.563966  
2555.000000	85.688336  
2554.000000	85.809224  
2553.000000	85.929316  
2552.000000	86.052554  
2551.000000	86.178299  
2550.000000	86.300423  
2549.000000	86.412628  
2548.000000	86.512598  
2547.000000	86.600328  
2546.000000	86.675051  
2545.000000	86.735739  
2544.000000	86.783270  
2543.000000	86.820808  
2542.000000	86.852703  
2541.000000	86.882847  
2540.000000	86.912225  
2539.000000	86.937835  
2538.000000	86.955983  
2537.000000	86.966943  
2536.000000	86.974557  
2535.000000	86.981213  
2534.000000	86.985503  
2533.000000	86.985311  
2532.000000	86.981268  
2531.000000	86.976511  
2530.000000	86.974049  
2529.000000	86.974168  
2528.000000	86.973637  
2527.000000	86.968533  
2526.000000	86.958381  
2525.000000	86.944844  
2524.000000	86.925020  
2523.000000	86.890493  
2522.000000	86.837073  
2521.000000	86.771838  
2520.000000	86.705279  
2519.000000	86.639588  
2518.000000	86.570931  
2517.000000	86.500437  
2516.000000	86.434695  
2515.000000	86.375833  
2514.000000	86.319361  
2513.000000	86.263233  
2512.000000	86.211596  
2511.000000	86.167015  
2510.000000	86.125446  
2509.000000	86.082779  
2508.000000	86.042407  
2507.000000	86.013745  
2506.000000	86.006447  
2505.000000	86.026925  
2504.000000	86.075842  
2503.000000	86.146968  
2502.000000	86.232167  
2501.000000	86.329266  
2500.000000	86.442248  
2499.000000	86.573460  
2498.000000	86.719692  
2497.000000	86.876168  
2496.000000	87.039456  
2495.000000	87.205638  
2494.000000	87.370994  
2493.000000	87.536170  
2492.000000	87.704165  
2491.000000	87.871946  
2490.000000	88.029879  
2489.000000	88.172866  
2488.000000	88.306385  
2487.000000	88.437042  
2486.000000	88.562232  
2485.000000	88.674903  
2484.000000	88.774924  
2483.000000	88.869346  
2482.000000	88.962774  
2481.000000	89.052490  
2480.000000	89.132354  
2479.000000	89.197219  
2478.000000	89.243640  
2477.000000	89.269888  
2476.000000	89.276392  
2475.000000	89.265428  
2474.000000	89.241307  
2473.000000	89.211437  
2472.000000	89.185240  
2471.000000	89.170980  
2470.000000	89.175172  
2469.000000	89.204074  
2468.000000	89.260891  
2467.000000	89.339822  
2466.000000	89.427318  
2465.000000	89.512956  
2464.000000	89.597329  
2463.000000	89.687473  
2462.000000	89.787245  
2461.000000	89.894148  
2460.000000	90.002471  
2459.000000	90.106667  
2458.000000	90.203836  
2457.000000	90.295332  
2456.000000	90.384097  
2455.000000	90.468996  
2454.000000	90.545082  
2453.000000	90.611895  
2452.000000	90.678192  
2451.000000	90.754954  
2450.000000	90.845708  
2449.000000	90.945829  
2448.000000	91.047902  
2447.000000	91.144301  
2446.000000	91.227764  
2445.000000	91.294854  
2444.000000	91.348772  
2443.000000	91.395745  
2442.000000	91.439163  
2441.000000	91.478854  
2440.000000	91.513838  
2439.000000	91.543179  
2438.000000	91.566684  
2437.000000	91.588285  
2436.000000	91.616530  
2435.000000	91.656998  
2434.000000	91.704529  
2433.000000	91.746971  
2432.000000	91.777732  
2431.000000	91.802281  
2430.000000	91.831235  
2429.000000	91.868508  
2428.000000	91.907223  
2427.000000	91.936970  
2426.000000	91.954692  
2425.000000	91.967797  
2424.000000	91.985982  
2423.000000	92.011086  
2422.000000	92.036800  
2421.000000	92.057313  
2420.000000	92.073354  
2419.000000	92.090115  
2418.000000	92.112793  
2417.000000	92.144649  
2416.000000	92.185638  
2415.000000	92.231285  
2414.000000	92.275778  
2413.000000	92.317771  
2412.000000	92.361087  
2411.000000	92.409426  
2410.000000	92.463951  
2409.000000	92.526968  
2408.000000	92.602688  
2407.000000	92.689922  
2406.000000	92.776754  
2405.000000	92.847724  
2404.000000	92.897275  
2403.000000	92.933907  
2402.000000	92.970263  
2401.000000	93.010103  
2400.000000	93.045458  
2399.000000	93.066670  
2398.000000	93.074592  
2397.000000	93.080374  
2396.000000	93.091871  
2395.000000	93.103644  
2394.000000	93.104893  
2393.000000	93.095465  
2392.000000	93.087862  
2391.000000	93.092997  
2390.000000	93.110192  
2389.000000	93.133588  
2388.000000	93.162692  
2387.000000	93.201858  
2386.000000	93.252514  
2385.000000	93.311019  
2384.000000	93.373799  
2383.000000	93.440975  
2382.000000	93.514121  
2381.000000	93.592396  
2380.000000	93.672023  
2379.000000	93.748848  
2378.000000	93.820258  
2377.000000	93.883612  
2376.000000	93.933554  
2375.000000	93.966138  
2374.000000	93.989467  
2373.000000	94.025605  
2372.000000	94.092366  
2371.000000	94.182392  
2370.000000	94.268669  
2369.000000	94.331695  
2368.000000	94.371663  
2367.000000	94.394914  
2366.000000	94.404464  
2365.000000	94.408845  
2364.000000	94.422637  
2363.000000	94.450374  
2362.000000	94.485178  
2361.000000	94.523442  
2360.000000	94.565882  
2359.000000	94.606755  
2358.000000	94.636328  
2357.000000	94.659342  
2356.000000	94.687785  
2355.000000	94.721509  
2354.000000	94.752444  
2353.000000	94.779016  
2352.000000	94.807017  
2351.000000	94.834359  
2350.000000	94.855936  
2349.000000	94.876700  
2348.000000	94.904001  
2347.000000	94.933202  
2346.000000	94.941802  
2345.000000	94.922205  
2344.000000	94.896779  
2343.000000	94.889363  
2342.000000	94.905235  
2341.000000	94.937282  
2340.000000	94.982240  
2339.000000	95.035480  
2338.000000	95.087440  
2337.000000	95.125635  
2336.000000	95.145120  
2335.000000	95.150769  
2334.000000	95.156618  
2333.000000	95.172196  
2332.000000	95.194195  
2331.000000	95.204055  
2330.000000	95.189172  
2329.000000	95.156118  
2328.000000	95.114698  
2327.000000	95.065181  
2326.000000	95.003092  
2325.000000	94.942037  
2324.000000	94.907332  
2323.000000	94.908268  
2322.000000	94.926706  
2321.000000	94.938236  
2320.000000	94.941397  
2319.000000	94.948017  
2318.000000	94.965962  
2317.000000	94.990826  
2316.000000	95.014402  
2315.000000	95.028926  
2314.000000	95.031553  
2313.000000	95.023117  
2312.000000	95.001538  
2311.000000	94.960278  
2310.000000	94.900472  
2309.000000	94.839790  
2308.000000	94.795771  
2307.000000	94.763770  
2306.000000	94.721944  
2305.000000	94.657689  
2304.000000	94.577376  
2303.000000	94.490940  
2302.000000	94.403121  
2301.000000	94.321721  
2300.000000	94.260378  
2299.000000	94.223534  
2298.000000	94.198603  
2297.000000	94.170924  
2296.000000	94.139547  
2295.000000	94.114708  
2294.000000	94.105181  
2293.000000	94.114258  
2292.000000	94.138745  
2291.000000	94.168546  
2290.000000	94.192179  
2289.000000	94.209424  
2288.000000	94.232879  
2287.000000	94.275313  
2286.000000	94.340652  
2285.000000	94.427504  
2284.000000	94.530602  
2283.000000	94.635588  
2282.000000	94.724235  
2281.000000	94.791287  
2280.000000	94.847576  
2279.000000	94.901521  
2278.000000	94.950199  
2277.000000	94.993883  
2276.000000	95.043970  
2275.000000	95.105005  
2274.000000	95.162420  
2273.000000	95.201180  
2272.000000	95.226008  
2271.000000	95.250879  
2270.000000	95.279224  
2269.000000	95.308110  
2268.000000	95.341379  
2267.000000	95.382258  
2266.000000	95.419245  
2265.000000	95.435391  
2264.000000	95.428835  
2263.000000	95.411559  
2262.000000	95.389456  
2261.000000	95.354556  
2260.000000	95.297267  
2259.000000	95.221156  
2258.000000	95.146390  
2257.000000	95.097174  
2256.000000	95.077937  
2255.000000	95.061639  
2254.000000	95.013826  
2253.000000	94.930629  
2252.000000	94.841446  
2251.000000	94.774198  
2250.000000	94.734815  
2249.000000	94.721893  
2248.000000	94.739281  
2247.000000	94.784868  
2246.000000	94.845017  
2245.000000	94.911701  
2244.000000	94.990062  
2243.000000	95.079879  
2242.000000	95.167316  
2241.000000	95.247224  
2240.000000	95.335305  
2239.000000	95.442080  
2238.000000	95.549510  
2237.000000	95.629289  
2236.000000	95.671984  
2235.000000	95.685942  
2234.000000	95.684815  
2233.000000	95.691463  
2232.000000	95.733814  
2231.000000	95.814542  
2230.000000	95.898126  
2229.000000	95.948061  
2228.000000	95.966250  
2227.000000	95.978752  
2226.000000	95.997836  
2225.000000	96.018659  
2224.000000	96.039194  
2223.000000	96.061025  
2222.000000	96.080007  
2221.000000	96.095159  
2220.000000	96.116580  
2219.000000	96.147676  
2218.000000	96.172330  
2217.000000	96.177293  
2216.000000	96.173661  
2215.000000	96.178633  
2214.000000	96.192462  
2213.000000	96.213331  
2212.000000	96.255963  
2211.000000	96.328949  
2210.000000	96.407201  
2209.000000	96.453895  
2208.000000	96.460860  
2207.000000	96.444489  
2206.000000	96.414957  
2205.000000	96.376778  
2204.000000	96.348115  
2203.000000	96.349099  
2202.000000	96.374386  
2201.000000	96.399542  
2200.000000	96.409913  
2199.000000	96.405261  
2198.000000	96.386725  
2197.000000	96.361332  
2196.000000	96.348540  
2195.000000	96.358683  
2194.000000	96.373883  
2193.000000	96.371527  
2192.000000	96.355778  
2191.000000	96.343859  
2190.000000	96.334563  
2189.000000	96.316312  
2188.000000	96.293935  
2187.000000	96.279489  
2186.000000	96.267923  
2185.000000	96.251830  
2184.000000	96.249066  
2183.000000	96.280294  
2182.000000	96.323860  
2181.000000	96.328946  
2180.000000	96.276118  
2179.000000	96.195362  
2178.000000	96.124625  
2177.000000	96.076460  
2176.000000	96.042204  
2175.000000	96.005158  
2174.000000	95.950901  
2173.000000	95.884162  
2172.000000	95.832244  
2171.000000	95.814403  
2170.000000	95.813446  
2169.000000	95.793958  
2168.000000	95.741406  
2167.000000	95.665413  
2166.000000	95.574505  
2165.000000	95.472609  
2164.000000	95.376411  
2163.000000	95.315685  
2162.000000	95.321059  
2161.000000	95.420958  
2160.000000	95.624139  
2159.000000	95.876249  
2158.000000	96.064974  
2157.000000	96.115200  
2156.000000	96.056416  
2155.000000	95.968013  
2154.000000	95.893195  
2153.000000	95.829509  
2152.000000	95.771087  
2151.000000	95.724402  
2150.000000	95.690851  
2149.000000	95.663214  
2148.000000	95.640210  
2147.000000	95.626405  
2146.000000	95.618876  
2145.000000	95.606689  
2144.000000	95.578171  
2143.000000	95.518493  
2142.000000	95.412442  
2141.000000	95.266530  
2140.000000	95.119115  
2139.000000	95.011061  
2138.000000	94.950005  
2137.000000	94.911501  
2136.000000	94.865545  
2135.000000	94.791862  
2134.000000	94.680399  
2133.000000	94.533280  
2132.000000	94.362543  
2131.000000	94.176095  
2130.000000	93.970483  
2129.000000	93.742470  
2128.000000	93.499176  
2127.000000	93.250700  
2126.000000	93.000921  
2125.000000	92.750484  
2124.000000	92.499285  
2123.000000	92.241520  
2122.000000	91.970441  
2121.000000	91.696090  
2120.000000	91.447129  
2119.000000	91.244544  
2118.000000	91.080610  
2117.000000	90.931900  
2116.000000	90.786384  
2115.000000	90.649614  
2114.000000	90.531253  
2113.000000	90.437028  
2112.000000	90.371211  
2111.000000	90.336589  
2110.000000	90.330866  
2109.000000	90.349341  
2108.000000	90.391843  
2107.000000	90.462857  
2106.000000	90.564980  
2105.000000	90.694525  
2104.000000	90.841132  
2103.000000	90.989475  
2102.000000	91.127089  
2101.000000	91.256853  
2100.000000	91.397806  
2099.000000	91.566905  
2098.000000	91.761970  
2097.000000	91.965957  
2096.000000	92.161562  
2095.000000	92.335431  
2094.000000	92.476834  
2093.000000	92.584697  
2092.000000	92.672066  
2091.000000	92.753087  
2090.000000	92.828610  
2089.000000	92.893083  
2088.000000	92.950783  
2087.000000	93.013473  
2086.000000	93.082897  
2085.000000	93.145473  
2084.000000	93.186550  
2083.000000	93.206004  
2082.000000	93.220960  
2081.000000	93.255081  
2080.000000	93.318810  
2079.000000	93.395769  
2078.000000	93.455068  
2077.000000	93.482010  
2076.000000	93.489784  
2075.000000	93.498341  
2074.000000	93.516064  
2073.000000	93.548585  
2072.000000	93.607058  
2071.000000	93.691496  
2070.000000	93.778558  
2069.000000	93.845019  
2068.000000	93.897103  
2067.000000	93.960531  
2066.000000	94.048094  
2065.000000	94.152301  
2064.000000	94.262483  
2063.000000	94.371732  
2062.000000	94.472259  
2061.000000	94.561469  
2060.000000	94.647877  
2059.000000	94.734851  
2058.000000	94.805976  
2057.000000	94.845816  
2056.000000	94.868476  
2055.000000	94.903959  
2054.000000	94.960576  
2053.000000	95.023093  
2052.000000	95.084594  
2051.000000	95.154965  
2050.000000	95.235034  
2049.000000	95.306118  
2048.000000	95.355849  
2047.000000	95.394602  
2046.000000	95.434708  
2045.000000	95.471393  
2044.000000	95.493293  
2043.000000	95.497250  
2042.000000	95.486608  
2041.000000	95.466519  
2040.000000	95.443922  
2039.000000	95.423223  
2038.000000	95.403590  
2037.000000	95.388595  
2036.000000	95.391159  
2035.000000	95.415946  
2034.000000	95.443790  
2033.000000	95.450197  
2032.000000	95.436424  
2031.000000	95.429217  
2030.000000	95.455725  
2029.000000	95.528333  
2028.000000	95.641835  
2027.000000	95.771089  
2026.000000	95.880782  
2025.000000	95.953810  
2024.000000	96.007551  
2023.000000	96.072327  
2022.000000	96.161315  
2021.000000	96.266951  
2020.000000	96.370024  
2019.000000	96.444419  
2018.000000	96.473574  
2017.000000	96.476976  
2016.000000	96.497600  
2015.000000	96.548289  
2014.000000	96.598866  
2013.000000	96.630742  
2012.000000	96.669766  
2011.000000	96.738703  
2010.000000	96.809209  
2009.000000	96.842463  
2008.000000	96.858540  
2007.000000	96.916092  
2006.000000	97.026670  
2005.000000	97.133720  
2004.000000	97.182536  
2003.000000	97.176682  
2002.000000	97.159318  
2001.000000	97.164460  
2000.000000	97.188736  
1999.000000	97.197573  
1998.000000	97.158674  
1997.000000	97.077872  
1996.000000	97.000516  
1995.000000	96.972930  
1994.000000	97.009454  
1993.000000	97.092188  
1992.000000	97.183232  
1991.000000	97.235918  
1990.000000	97.217736  
1989.000000	97.137264  
1988.000000	97.036846  
1987.000000	96.949505  
1986.000000	96.877971  
1985.000000	96.820653  
1984.000000	96.791052  
1983.000000	96.795588  
1982.000000	96.816914  
1981.000000	96.840618  
1980.000000	96.878274  
1979.000000	96.944012  
1978.000000	97.026831  
1977.000000	97.109446  
1976.000000	97.192610  
1975.000000	97.272782  
1974.000000	97.322356  
1973.000000	97.322498  
1972.000000	97.293890  
1971.000000	97.268980  
1970.000000	97.254855  
1969.000000	97.243409  
1968.000000	97.232220  
1967.000000	97.212844  
1966.000000	97.165850  
1965.000000	97.096005  
1964.000000	97.049603  
1963.000000	97.070012  
1962.000000	97.150037  
1961.000000	97.243091  
1960.000000	97.306609  
1959.000000	97.322504  
1958.000000	97.298293  
1957.000000	97.270126  
1956.000000	97.282546  
1955.000000	97.341725  
1954.000000	97.403270  
1953.000000	97.422559  
1952.000000	97.402527  
1951.000000	97.376358  
1950.000000	97.365333  
1949.000000	97.373488  
1948.000000	97.400144  
1947.000000	97.434988  
1946.000000	97.457989  
1945.000000	97.465081  
1944.000000	97.478383  
1943.000000	97.511398  
1942.000000	97.542219  
1941.000000	97.546107  
1940.000000	97.534524  
1939.000000	97.535524  
1938.000000	97.554824  
1937.000000	97.578581  
1936.000000	97.600697  
1935.000000	97.626167  
1934.000000	97.655110  
1933.000000	97.681776  
1932.000000	97.703942  
1931.000000	97.718057  
1930.000000	97.717507  
1929.000000	97.710497  
1928.000000	97.722310  
1927.000000	97.765272  
1926.000000	97.817858  
1925.000000	97.851056  
1924.000000	97.862240  
1923.000000	97.865657  
1922.000000	97.866959  
1921.000000	97.867582  
1920.000000	97.880263  
1919.000000	97.915157  
1918.000000	97.956400  
1917.000000	97.978119  
1916.000000	97.978680  
1915.000000	97.973263  
1914.000000	97.964126  
1913.000000	97.941480  
1912.000000	97.906800  
1911.000000	97.874176  
1910.000000	97.851348  
1909.000000	97.835791  
1908.000000	97.826516  
1907.000000	97.827737  
1906.000000	97.839684  
1905.000000	97.859235  
1904.000000	97.886399  
1903.000000	97.916665  
1902.000000	97.934592  
1901.000000	97.926605  
1900.000000	97.897215  
1899.000000	97.864747  
1898.000000	97.844634  
1897.000000	97.844329  
1896.000000	97.865550  
1895.000000	97.899547  
1894.000000	97.928637  
1893.000000	97.943094  
1892.000000	97.950893  
1891.000000	97.963803  
1890.000000	97.981865  
1889.000000	97.998273  
1888.000000	98.010603  
1887.000000	98.019066  
1886.000000	98.023992  
1885.000000	98.032947  
1884.000000	98.058605  
1883.000000	98.099534  
1882.000000	98.135081  
1881.000000	98.148883  
1880.000000	98.145627  
1879.000000	98.138426  
1878.000000	98.132599  
1877.000000	98.131431  
1876.000000	98.144379  
1875.000000	98.173875  
1874.000000	98.204815  
1873.000000	98.222677  
1872.000000	98.232054  
1871.000000	98.244205  
1870.000000	98.255658  
1869.000000	98.254398  
1868.000000	98.240618  
1867.000000	98.222470  
1866.000000	98.201445  
1865.000000	98.179567  
1864.000000	98.167214  
1863.000000	98.169190  
1862.000000	98.172615  
1861.000000	98.161978  
1860.000000	98.139576  
1859.000000	98.118760  
1858.000000	98.104973  
1857.000000	98.094830  
1856.000000	98.086444  
1855.000000	98.078559  
1854.000000	98.066224  
1853.000000	98.049008  
1852.000000	98.032765  
1851.000000	98.020504  
1850.000000	98.009466  
1849.000000	98.000329  
1848.000000	98.000292  
1847.000000	98.008017  
1846.000000	98.007739  
1845.000000	97.986999  
1844.000000	97.955657  
1843.000000	97.931320  
1842.000000	97.915837  
1841.000000	97.905276  
1840.000000	97.904565  
1839.000000	97.919014  
1838.000000	97.942293  
1837.000000	97.965206  
1836.000000	97.987982  
1835.000000	98.012313  
1834.000000	98.034830  
1833.000000	98.056233  
1832.000000	98.084245  
1831.000000	98.121789  
1830.000000	98.160001  
1829.000000	98.192483  
1828.000000	98.224592  
1827.000000	98.257563  
1826.000000	98.279748  
1825.000000	98.283208  
1824.000000	98.279176  
1823.000000	98.280348  
1822.000000	98.282463  
1821.000000	98.279574  
1820.000000	98.281171  
1819.000000	98.300215  
1818.000000	98.330209  
1817.000000	98.352059  
1816.000000	98.357355  
1815.000000	98.349391  
1814.000000	98.332601  
1813.000000	98.311331  
1812.000000	98.294029  
1811.000000	98.284403  
1810.000000	98.273006  
1809.000000	98.252976  
1808.000000	98.232397  
1807.000000	98.220992  
1806.000000	98.216282  
1805.000000	98.212901  
1804.000000	98.213913  
1803.000000	98.221214  
1802.000000	98.228338  
1801.000000	98.230728  
1800.000000	98.234920  
1799.000000	98.244554  
1798.000000	98.248510  
1797.000000	98.239656  
1796.000000	98.228784  
1795.000000	98.229201  
1794.000000	98.239130  
1793.000000	98.247552  
1792.000000	98.251373  
1791.000000	98.251075  
1790.000000	98.238418  
1789.000000	98.211174  
1788.000000	98.185296  
1787.000000	98.178839  
1786.000000	98.190607  
1785.000000	98.206066  
1784.000000	98.218070  
1783.000000	98.226703  
1782.000000	98.231341  
1781.000000	98.229918  
1780.000000	98.225509  
1779.000000	98.223573  
1778.000000	98.223219  
1777.000000	98.224945  
1776.000000	98.232968  
1775.000000	98.247175  
1774.000000	98.259078  
1773.000000	98.260323  
1772.000000	98.253191  
1771.000000	98.241560  
1770.000000	98.218804  
1769.000000	98.185138  
1768.000000	98.158525  
1767.000000	98.148941  
1766.000000	98.143143  
1765.000000	98.127019  
1764.000000	98.106219  
1763.000000	98.092803  
1762.000000	98.086200  
1761.000000	98.079115  
1760.000000	98.073073  
1759.000000	98.068756  
1758.000000	98.057379  
1757.000000	98.038174  
1756.000000	98.025286  
1755.000000	98.026668  
1754.000000	98.031045  
1753.000000	98.031162  
1752.000000	98.041333  
1751.000000	98.075408  
1750.000000	98.113219  
1749.000000	98.125467  
1748.000000	98.117179  
1747.000000	98.112265  
1746.000000	98.121016  
1745.000000	98.140418  
1744.000000	98.174957  
1743.000000	98.230960  
1742.000000	98.298279  
1741.000000	98.363384  
1740.000000	98.431827  
1739.000000	98.509626  
1738.000000	98.581438  
1737.000000	98.638549  
1736.000000	98.704869  
1735.000000	98.811582  
1734.000000	98.937746  
1733.000000	99.028911  
1732.000000	99.081735  
1731.000000	99.134850  
1730.000000	99.209002  
1729.000000	99.299386  
1728.000000	99.398195  
1727.000000	99.504730  
1726.000000	99.613138  
1725.000000	99.706742  
1724.000000	99.776050  
1723.000000	99.820940  
1722.000000	99.835887  
1721.000000	99.818177  
1720.000000	99.780979  
1719.000000	99.738585  
1718.000000	99.675867  
1717.000000	99.570434  
1716.000000	99.438977  
1715.000000	99.314281  
1714.000000	99.204727  
1713.000000	99.105003  
1712.000000	99.019399  
1711.000000	98.954716  
1710.000000	98.904401  
1709.000000	98.855175  
1708.000000	98.801743  
1707.000000	98.746681  
1706.000000	98.687820  
1705.000000	98.623968  
1704.000000	98.564700  
1703.000000	98.519135  
1702.000000	98.489120  
1701.000000	98.469590  
1700.000000	98.450606  
1699.000000	98.415610  
1698.000000	98.343879  
1697.000000	98.235743  
1696.000000	98.128304  
1695.000000	98.053095  
1694.000000	97.995428  
1693.000000	97.931894  
1692.000000	97.870638  
1691.000000	97.827948  
1690.000000	97.798277  
1689.000000	97.768184  
1688.000000	97.740345  
1687.000000	97.728197  
1686.000000	97.729647  
1685.000000	97.718612  
1684.000000	97.679189  
1683.000000	97.616417  
1682.000000	97.528991  
1681.000000	97.425694  
1680.000000	97.339016  
1679.000000	97.284872  
1678.000000	97.242006  
1677.000000	97.185332  
1676.000000	97.127533  
1675.000000	97.095187  
1674.000000	97.076931  
1673.000000	97.042860  
1672.000000	96.996860  
1671.000000	96.957405  
1670.000000	96.909195  
1669.000000	96.827080  
1668.000000	96.727831  
1667.000000	96.642297  
1666.000000	96.563353  
1665.000000	96.463660  
1664.000000	96.336037  
1663.000000	96.187006  
1662.000000	96.005839  
1661.000000	95.774252  
1660.000000	95.499657  
1659.000000	95.205951  
1658.000000	94.894950  
1657.000000	94.556366  
1656.000000	94.175423  
1655.000000	93.708991  
1654.000000	93.004824  
1653.000000	92.028372  
1652.000000	91.092500  
1651.000000	90.384335  
1650.000000	89.784156  
1649.000000	89.165277  
1648.000000	88.503877  
1647.000000	87.892054  
1646.000000	87.415396  
1645.000000	87.056377  
1644.000000	86.777337  
1643.000000	86.566793  
1642.000000	86.390324  
1641.000000	86.189208  
1640.000000	85.938342  
1639.000000	85.647810  
1638.000000	85.279634  
1637.000000	84.714120  
1636.000000	83.877508  
1635.000000	82.888553  
1634.000000	81.888363  
1633.000000	80.860402  
1632.000000	79.755058  
1631.000000	78.564669  
1630.000000	77.259960  
1629.000000	75.781301  
1628.000000	74.150368  
1627.000000	72.491406  
1626.000000	70.854325  
1625.000000	69.138812  
1624.000000	67.280694  
1623.000000	65.440912  
1622.000000	63.857203  
1621.000000	62.573957  
1620.000000	61.502488  
1619.000000	60.600143  
1618.000000	59.861365  
1617.000000	59.250470  
1616.000000	58.744785  
1615.000000	58.373778  
1614.000000	58.140708  
1613.000000	58.016635  
1612.000000	58.032888  
1611.000000	58.283312  
1610.000000	58.799203  
1609.000000	59.480826  
1608.000000	60.191979  
1607.000000	60.838220  
1606.000000	61.333412  
1605.000000	61.585399  
1604.000000	61.555608  
1603.000000	61.285061  
1602.000000	60.828190  
1601.000000	60.203759  
1600.000000	59.439128  
1599.000000	58.604985  
1598.000000	57.758749  
1597.000000	56.900273  
1596.000000	56.027433  
1595.000000	55.182529  
1594.000000	54.390371  
1593.000000	53.607140  
1592.000000	52.789922  
1591.000000	51.962250  
1590.000000	51.161265  
1589.000000	50.382751  
1588.000000	49.638768  
1587.000000	49.011308  
1586.000000	48.579194  
1585.000000	48.342373  
1584.000000	48.279711  
1583.000000	48.421919  
1582.000000	48.782790  
1581.000000	49.270509  
1580.000000	49.767455  
1579.000000	50.272533  
1578.000000	50.902410  
1577.000000	51.762903  
1576.000000	52.790987  
1575.000000	53.761509  
1574.000000	54.515495  
1573.000000	55.076327  
1572.000000	55.582083  
1571.000000	56.207479  
1570.000000	57.015748  
1569.000000	57.841867  
1568.000000	58.493068  
1567.000000	58.987172  
1566.000000	59.461957  
1565.000000	59.980285  
1564.000000	60.490974  
1563.000000	60.915356  
1562.000000	61.265667  
1561.000000	61.667150  
1560.000000	62.374741  
1559.000000	63.472496  
1558.000000	64.505360  
1557.000000	65.102842  
1556.000000	65.421010  
1555.000000	65.726430  
1554.000000	66.122955  
1553.000000	66.534945  
1552.000000	66.876302  
1551.000000	67.185664  
1550.000000	67.529598  
1549.000000	67.883808  
1548.000000	68.183503  
1547.000000	68.451448  
1546.000000	68.783896  
1545.000000	69.232916  
1544.000000	69.756224  
1543.000000	70.309387  
1542.000000	70.933148  
1541.000000	71.711484  
1540.000000	72.641694  
1539.000000	73.557849  
1538.000000	74.282331  
1537.000000	74.799883  
1536.000000	75.221531  
1535.000000	75.685851  
1534.000000	76.256103  
1533.000000	76.822361  
1532.000000	77.223863  
1531.000000	77.436636  
1530.000000	77.520174  
1529.000000	77.501311  
1528.000000	77.363383  
1527.000000	77.081040  
1526.000000	76.652410  
1525.000000	76.100637  
1524.000000	75.449265  
1523.000000	74.708802  
1522.000000	73.924773  
1521.000000	73.223918  
1520.000000	72.706978  
1519.000000	72.365479  
1518.000000	72.182426  
1517.000000	72.174689  
1516.000000	72.302917  
1515.000000	72.461543  
1514.000000	72.587091  
1513.000000	72.680654  
1512.000000	72.736064  
1511.000000	72.719167  
1510.000000	72.610686  
1509.000000	72.438747  
1508.000000	72.273058  
1507.000000	72.211926  
1506.000000	72.304395  
1505.000000	72.490231  
1504.000000	72.707698  
1503.000000	72.975077  
1502.000000	73.345540  
1501.000000	73.849195  
1500.000000	74.462471  
1499.000000	75.145629  
1498.000000	75.898972  
1497.000000	76.738904  
1496.000000	77.619217  
1495.000000	78.443744  
1494.000000	79.166762  
1493.000000	79.823963  
1492.000000	80.491656  
1491.000000	81.233054  
1490.000000	82.027001  
1489.000000	82.769555  
1488.000000	83.395778  
1487.000000	83.934107  
1486.000000	84.418939  
1485.000000	84.839944  
1484.000000	85.188217  
1483.000000	85.499202  
1482.000000	85.816182  
1481.000000	86.135143  
1480.000000	86.427158  
1479.000000	86.690672  
1478.000000	86.939988  
1477.000000	87.161967  
1476.000000	87.328721  
1475.000000	87.428985  
1474.000000	87.447591  
1473.000000	87.337747  
1472.000000	87.071955  
1471.000000	86.672732  
1470.000000	86.143936  
1469.000000	85.452275  
1468.000000	84.571163  
1467.000000	83.479657  
1466.000000	82.156851  
1465.000000	80.684904  
1464.000000	79.313675  
1463.000000	78.243133  
1462.000000	77.412353  
1461.000000	76.604850  
1460.000000	75.596858  
1459.000000	74.182102  
1458.000000	72.204450  
1457.000000	69.906858  
1456.000000	68.015291  
1455.000000	66.976203  
1454.000000	66.713598  
1453.000000	67.091680  
1452.000000	68.012030  
1451.000000	69.292212  
1450.000000	70.718516  
1449.000000	72.163899  
1448.000000	73.544337  
1447.000000	74.766623  
1446.000000	75.822711  
1445.000000	76.821564  
1444.000000	77.887200  
1443.000000	79.079420  
1442.000000	80.375136  
1441.000000	81.675155  
1440.000000	82.858152  
1439.000000	83.876670  
1438.000000	84.780518  
1437.000000	85.598359  
1436.000000	86.239140  
1435.000000	86.629702  
1434.000000	86.837376  
1433.000000	86.955041  
1432.000000	87.005436  
1431.000000	86.975661  
1430.000000	86.868344  
1429.000000	86.688724  
1428.000000	86.421732  
1427.000000	86.049289  
1426.000000	85.554871  
1425.000000	84.903111  
1424.000000	84.068758  
1423.000000	83.077731  
1422.000000	81.920005  
1421.000000	80.441754  
1420.000000	78.415138  
1419.000000	75.823202  
1418.000000	72.946691  
1417.000000	70.013633  
1416.000000	67.069026  
1415.000000	64.181559  
1414.000000	61.506649  
1413.000000	59.240933  
1412.000000	57.623746  
1411.000000	56.866914  
1410.000000	56.994010  
1409.000000	57.855846  
1408.000000	59.313527  
1407.000000	61.284364  
1406.000000	63.650012  
1405.000000	66.220467  
1404.000000	68.770952  
1403.000000	71.117485  
1402.000000	73.213555  
1401.000000	75.162038  
1400.000000	77.080433  
1399.000000	78.937173  
1398.000000	80.593793  
1397.000000	82.008625  
1396.000000	83.267103  
1395.000000	84.429578  
1394.000000	85.459466  
1393.000000	86.306985  
1392.000000	86.985263  
1391.000000	87.544798  
1390.000000	88.031502  
1389.000000	88.472151  
1388.000000	88.866331  
1387.000000	89.190263  
1386.000000	89.421257  
1385.000000	89.546796  
1384.000000	89.536776  
1383.000000	89.321890  
1382.000000	88.812062  
1381.000000	87.962489  
1380.000000	86.867289  
1379.000000	85.798396  
1378.000000	85.070911  
1377.000000	84.801384  
1376.000000	84.827793  
1375.000000	84.857874  
1374.000000	84.664107  
1373.000000	84.157705  
1372.000000	83.317626  
1371.000000	82.107093  
1370.000000	80.472830  
1369.000000	78.389472  
1368.000000	75.901592  
1367.000000	73.121884  
1366.000000	70.161547  
1365.000000	67.082195  
1364.000000	63.974007  
1363.000000	61.089462  
1362.000000	58.786437  
1361.000000	57.260569  
1360.000000	56.436672  
1359.000000	56.135255  
1358.000000	56.238244  
1357.000000	56.720842  
1356.000000	57.604530  
1355.000000	58.884791  
1354.000000	60.480483  
1353.000000	62.256307  
1352.000000	64.095976  
1351.000000	65.935133  
1350.000000	67.733643  
1349.000000	69.450206  
1348.000000	71.053531  
1347.000000	72.539506  
1346.000000	73.922192  
1345.000000	75.213066  
1344.000000	76.413681  
1343.000000	77.525916  
1342.000000	78.563200  
1341.000000	79.546879  
1340.000000	80.488918  
1339.000000	81.381866  
1338.000000	82.212023  
1337.000000	82.978154  
1336.000000	83.691163  
1335.000000	84.362842  
1334.000000	85.000938  
1333.000000	85.608512  
1332.000000	86.181646  
1331.000000	86.710826  
1330.000000	87.188249  
1329.000000	87.609921  
1328.000000	87.969570  
1327.000000	88.257417  
1326.000000	88.467399  
1325.000000	88.598607  
1324.000000	88.646956  
1323.000000	88.601464  
1322.000000	88.447157  
1321.000000	88.163258  
1320.000000	87.718101  
1319.000000	87.073962  
1318.000000	86.195832  
1317.000000	85.044718  
1316.000000	83.560206  
1315.000000	81.659020  
1314.000000	79.263500  
1313.000000	76.352182  
1312.000000	73.005584  
1311.000000	69.407910  
1310.000000	65.800687  
1309.000000	62.441954  
1308.000000	59.597159  
1307.000000	57.506552  
1306.000000	56.309100  
1305.000000	56.002220  
1304.000000	56.473683  
1303.000000	57.542693  
1302.000000	58.986943  
1301.000000	60.594177  
1300.000000	62.220980  
1299.000000	63.802136  
1298.000000	65.316580  
1297.000000	66.761121  
1296.000000	68.143667  
1295.000000	69.472445  
1294.000000	70.742026  
1293.000000	71.936930  
1292.000000	73.048064  
1291.000000	74.078422  
1290.000000	75.035021  
1289.000000	75.923075  
1288.000000	76.748084  
1287.000000	77.517428  
1286.000000	78.237986  
1285.000000	78.915170  
1284.000000	79.555235  
1283.000000	80.165919  
1282.000000	80.752990  
1281.000000	81.317054  
1280.000000	81.855076  
1279.000000	82.364872  
1278.000000	82.847419  
1277.000000	83.305668  
1276.000000	83.743741  
1275.000000	84.167731  
1274.000000	84.583868  
1273.000000	84.993151  
1272.000000	85.389759  
1271.000000	85.766922  
1270.000000	86.122171  
1269.000000	86.455179  
1268.000000	86.764997  
1267.000000	87.053240  
1266.000000	87.325268  
1265.000000	87.583346  
1264.000000	87.823954  
1263.000000	88.047736  
1262.000000	88.266014  
1261.000000	88.488918  
1260.000000	88.711039  
1259.000000	88.917478  
1258.000000	89.101174  
1257.000000	89.266289  
1256.000000	89.418251  
1255.000000	89.558813  
1254.000000	89.687159  
1253.000000	89.797060  
1252.000000	89.875612  
1251.000000	89.912063  
1250.000000	89.903262  
1249.000000	89.841541  
1248.000000	89.701619  
1247.000000	89.447357  
1246.000000	89.043082  
1245.000000	88.443826  
1244.000000	87.577842  
1243.000000	86.354497  
1242.000000	84.699983  
1241.000000	82.604687  
1240.000000	80.178292  
1239.000000	77.686733  
1238.000000	75.509589  
1237.000000	74.013458  
1236.000000	73.421883  
1235.000000	73.745406  
1234.000000	74.795887  
1233.000000	76.287248  
1232.000000	77.958599  
1231.000000	79.636290  
1230.000000	81.226606  
1229.000000	82.684315  
1228.000000	83.988811  
1227.000000	85.135463  
1226.000000	86.135563  
1225.000000	87.011496  
1224.000000	87.785002  
1223.000000	88.470528  
1222.000000	89.077393  
1221.000000	89.612068  
1220.000000	90.080307  
1219.000000	90.494975  
1218.000000	90.879529  
1217.000000	91.254292  
1216.000000	91.620488  
1215.000000	91.966053  
1214.000000	92.284152  
1213.000000	92.576533  
1212.000000	92.843194  
1211.000000	93.082478  
1210.000000	93.300384  
1209.000000	93.507543  
1208.000000	93.707568  
1207.000000	93.898500  
1206.000000	94.082478  
1205.000000	94.262506  
1204.000000	94.433505  
1203.000000	94.589442  
1202.000000	94.735932  
1201.000000	94.882519  
1200.000000	95.026073  
1199.000000	95.156398  
1198.000000	95.275994  
1197.000000	95.399953  
1196.000000	95.537437  
1195.000000	95.685019  
1194.000000	95.834733  
1193.000000	95.976639  
1192.000000	96.099229  
1191.000000	96.202722  
1190.000000	96.307012  
1189.000000	96.429362  
1188.000000	96.558230  
1187.000000	96.667232  
1186.000000	96.752242  
1185.000000	96.835215  
1184.000000	96.932003  
1183.000000	97.036222  
1182.000000	97.136049  
1181.000000	97.227730  
1180.000000	97.308646  
1179.000000	97.374099  
1178.000000	97.425958  
1177.000000	97.470465  
1176.000000	97.504142  
1175.000000	97.514596  
1174.000000	97.497039  
1173.000000	97.457307  
1172.000000	97.397921  
1171.000000	97.315079  
1170.000000	97.210656  
1169.000000	97.093723  
1168.000000	96.967142  
1167.000000	96.821677  
1166.000000	96.642841  
1165.000000	96.414512  
1164.000000	96.117593  
1163.000000	95.733316  
1162.000000	95.242670  
1161.000000	94.613046  
1160.000000	93.793957  
1159.000000	92.741485  
1158.000000	91.446778  
1157.000000	89.940076  
1156.000000	88.290237  
1155.000000	86.620684  
1154.000000	85.108930  
1153.000000	83.939917  
1152.000000	83.242829  
1151.000000	83.055143  
1150.000000	83.328949  
1149.000000	83.969377  
1148.000000	84.873240  
1147.000000	85.942945  
1146.000000	87.087061  
1145.000000	88.226785  
1144.000000	89.304496  
1143.000000	90.285864  
1142.000000	91.157078  
1141.000000	91.917832  
1140.000000	92.572660  
1139.000000	93.129471  
1138.000000	93.603452  
1137.000000	94.013018  
1136.000000	94.368727  
1135.000000	94.671337  
1134.000000	94.920981  
1133.000000	95.122235  
1132.000000	95.280466  
1131.000000	95.399219  
1130.000000	95.479379  
1129.000000	95.513295  
1128.000000	95.480142  
1127.000000	95.352772  
1126.000000	95.107086  
1125.000000	94.718570  
1124.000000	94.150842  
1123.000000	93.347970  
1122.000000	92.223975  
1121.000000	90.644987  
1120.000000	88.432105  
1119.000000	85.422608  
1118.000000	81.590596  
1117.000000	77.178972  
1116.000000	72.752230  
1115.000000	69.057308  
1114.000000	66.701552  
1113.000000	65.894970  
1112.000000	66.474360  
1111.000000	68.103578  
1110.000000	70.425327  
1109.000000	73.109553  
1108.000000	75.865173  
1107.000000	78.462372  
1106.000000	80.759511  
1105.000000	82.703795  
1104.000000	84.301248  
1103.000000	85.588114  
1102.000000	86.619189  
1101.000000	87.458844  
1100.000000	88.170335  
1099.000000	88.809856  
1098.000000	89.417926  
1097.000000	90.005182  
1096.000000	90.555434  
1095.000000	91.052941  
1094.000000	91.500132  
1093.000000	91.903181  
1092.000000	92.257140  
1091.000000	92.560893  
1090.000000	92.832588  
1089.000000	93.091080  
1088.000000	93.332514  
1087.000000	93.543373  
1086.000000	93.726642  
1085.000000	93.896599  
1084.000000	94.057829  
1083.000000	94.209353  
1082.000000	94.360239  
1081.000000	94.519755  
1080.000000	94.678072  
1079.000000	94.816406  
1078.000000	94.932461  
1077.000000	95.040456  
1076.000000	95.153646  
1075.000000	95.282485  
1074.000000	95.437973  
1073.000000	95.615789  
1072.000000	95.785728  
1071.000000	95.918360  
1070.000000	96.017287  
1069.000000	96.107528  
1068.000000	96.200931  
1067.000000	96.292485  
1066.000000	96.379670  
1065.000000	96.461959  
1064.000000	96.529226  
1063.000000	96.574779  
1062.000000	96.614784  
1061.000000	96.673104  
1060.000000	96.752250  
1059.000000	96.838303  
1058.000000	96.925314  
1057.000000	97.012869  
1056.000000	97.089258  
1055.000000	97.144069  
1054.000000	97.193238  
1053.000000	97.265539  
1052.000000	97.366072  
1051.000000	97.479165  
1050.000000	97.605480  
1049.000000	97.765810  
1048.000000	97.968088  
1047.000000	98.202021  
1046.000000	98.466826  
1045.000000	98.773752  
1044.000000	99.117042  
1043.000000	99.466105  
1042.000000	99.790766  
1041.000000	100.075133 
1040.000000	100.305946 
1039.000000	100.471067 
1038.000000	100.573851 
1037.000000	100.627434 
1036.000000	100.631410 
1035.000000	100.573357 
1034.000000	100.452843 
1033.000000	100.282488 
1032.000000	100.064702 
1031.000000	99.785412  
1030.000000	99.426707  
1029.000000	98.965290  
1028.000000	98.361184  
1027.000000	97.563199  
1026.000000	96.512592  
1025.000000	95.121814  
1024.000000	93.281599  
1023.000000	90.955096  
1022.000000	88.285257  
1021.000000	85.565261  
1020.000000	83.048793  
1019.000000	80.755006  
1018.000000	78.459629  
1017.000000	75.922978  
1016.000000	73.181465  
1015.000000	70.640335  
1014.000000	68.868889  
1013.000000	68.274449  
1012.000000	68.917984  
1011.000000	70.550820  
1010.000000	72.779312  
1009.000000	75.234288  
1008.000000	77.656609  
1007.000000	79.895275  
1006.000000	81.879757  
1005.000000	83.598373  
1004.000000	85.072646  
1003.000000	86.333039  
1002.000000	87.413026  
1001.000000	88.350511  
1000.000000	89.177016  
999.000000	 89.904894  
998.000000	 90.532538  
997.000000	 91.060729  
996.000000	 91.500493  
995.000000	 91.870786  
994.000000	 92.193398  
993.000000	 92.484799  
992.000000	 92.748813  
991.000000	 92.981339  
990.000000	 93.183767  
989.000000	 93.365720  
988.000000	 93.533409  
987.000000	 93.683694  
986.000000	 93.813313  
985.000000	 93.927099  
984.000000	 94.033157  
983.000000	 94.135184  
982.000000	 94.232361  
981.000000	 94.321956  
980.000000	 94.400147  
979.000000	 94.465707  
978.000000	 94.525216  
977.000000	 94.590186  
976.000000	 94.667474  
975.000000	 94.756140  
974.000000	 94.853277  
973.000000	 94.957064  
972.000000	 95.062579  
971.000000	 95.159518  
970.000000	 95.236491  
969.000000	 95.285795  
968.000000	 95.305553  
967.000000	 95.301204  
966.000000	 95.282657  
965.000000	 95.255143  
964.000000	 95.215930  
963.000000	 95.165434  
962.000000	 95.116146  
961.000000	 95.080540  
960.000000	 95.052113  
959.000000	 95.009008  
958.000000	 94.938023  
957.000000	 94.846293  
956.000000	 94.746957  
955.000000	 94.642094  
954.000000	 94.525313  
953.000000	 94.396642  
952.000000	 94.269116  
951.000000	 94.159833  
950.000000	 94.075759  
949.000000	 94.009653  
948.000000	 93.951417  
947.000000	 93.902370  
946.000000	 93.874817  
945.000000	 93.877232  
944.000000	 93.904234  
943.000000	 93.942544  
942.000000	 93.982139  
941.000000	 94.018894  
940.000000	 94.050883  
939.000000	 94.077112  
938.000000	 94.098118  
937.000000	 94.113910  
936.000000	 94.121547  
935.000000	 94.115052  
934.000000	 94.084703  
933.000000	 94.016146  
932.000000	 93.895274  
931.000000	 93.715629  
930.000000	 93.474364  
929.000000	 93.155270  
928.000000	 92.716647  
927.000000	 92.094169  
926.000000	 91.209389  
925.000000	 89.979686  
924.000000	 88.342511  
923.000000	 86.300109  
922.000000	 83.969680  
921.000000	 81.619481  
920.000000	 79.660292  
919.000000	 78.536721  
918.000000	 78.524349  
917.000000	 79.578031  
916.000000	 81.368989  
915.000000	 83.468801  
914.000000	 85.531068  
913.000000	 87.367022  
912.000000	 88.917734  
911.000000	 90.195192  
910.000000	 91.240992  
909.000000	 92.099278  
908.000000	 92.800217  
907.000000	 93.364434  
906.000000	 93.816684  
905.000000	 94.183580  
904.000000	 94.481664  
903.000000	 94.720682  
902.000000	 94.916044  
901.000000	 95.085568  
900.000000	 95.235718  
899.000000	 95.362203  
898.000000	 95.462709  
897.000000	 95.540483  
896.000000	 95.600634  
895.000000	 95.653221  
894.000000	 95.713897  
893.000000	 95.788806  
892.000000	 95.863168  
891.000000	 95.917237  
890.000000	 95.950611  
889.000000	 95.979684  
888.000000	 96.015115  
887.000000	 96.053325  
886.000000	 96.086198  
885.000000	 96.108101  
884.000000	 96.117880  
883.000000	 96.125627  
882.000000	 96.152413  
881.000000	 96.210269  
880.000000	 96.286627  
879.000000	 96.360278  
878.000000	 96.426375  
877.000000	 96.491477  
876.000000	 96.550761  
875.000000	 96.588724  
874.000000	 96.599397  
873.000000	 96.588393  
872.000000	 96.557351  
871.000000	 96.503523  
870.000000	 96.432974  
869.000000	 96.356995  
868.000000	 96.274189  
867.000000	 96.168781  
866.000000	 96.026411  
865.000000	 95.840776  
864.000000	 95.605887  
863.000000	 95.310310  
862.000000	 94.932926  
861.000000	 94.430191  
860.000000	 93.728680  
859.000000	 92.740457  
858.000000	 91.380733  
857.000000	 89.558069  
856.000000	 87.161958  
855.000000	 84.103977  
854.000000	 80.414607  
853.000000	 76.329413  
852.000000	 72.292525  
851.000000	 68.844867  
850.000000	 66.442475  
849.000000	 65.335096  
848.000000	 65.573272  
847.000000	 67.049644  
846.000000	 69.493911  
845.000000	 72.488831  
844.000000	 75.576470  
843.000000	 78.402924  
842.000000	 80.801851  
841.000000	 82.770658  
840.000000	 84.382086  
839.000000	 85.713462  
838.000000	 86.825491  
837.000000	 87.764453  
836.000000	 88.565493  
835.000000	 89.257309  
834.000000	 89.864197  
833.000000	 90.399271  
832.000000	 90.861424  
831.000000	 91.248494  
830.000000	 91.571010  
829.000000	 91.847286  
828.000000	 92.093650  
827.000000	 92.328237  
826.000000	 92.570994  
825.000000	 92.824547  
824.000000	 93.067448  
823.000000	 93.283249  
822.000000	 93.481866  
821.000000	 93.674658  
820.000000	 93.847333  
819.000000	 93.979582  
818.000000	 94.076204  
817.000000	 94.156859  
816.000000	 94.226994  
815.000000	 94.281641  
814.000000	 94.329143  
813.000000	 94.386087  
812.000000	 94.451601  
811.000000	 94.509009  
810.000000	 94.553260  
809.000000	 94.598253  
808.000000	 94.656760  
807.000000	 94.729172  
806.000000	 94.810770  
805.000000	 94.894999  
804.000000	 94.972386  
803.000000	 95.041160  
802.000000	 95.114189  
801.000000	 95.199073  
800.000000	 95.277652  
799.000000	 95.325244  
798.000000	 95.346304  
797.000000	 95.368962  
796.000000	 95.404215  
795.000000	 95.429717  
794.000000	 95.414111  
793.000000	 95.341353  
792.000000	 95.213625  
791.000000	 95.048170  
790.000000	 94.869370  
789.000000	 94.685836  
788.000000	 94.475565  
787.000000	 94.207094  
786.000000	 93.869733  
785.000000	 93.466628  
784.000000	 92.984697  
783.000000	 92.390577  
782.000000	 91.650013  
781.000000	 90.730889  
780.000000	 89.594030  
779.000000	 88.206876  
778.000000	 86.569804  
777.000000	 84.717842  
776.000000	 82.710378  
775.000000	 80.647486  
774.000000	 78.697327  
773.000000	 77.086830  
772.000000	 76.048652  
771.000000	 75.751831  
770.000000	 76.242705  
769.000000	 77.423998  
768.000000	 79.089344  
767.000000	 80.997100  
766.000000	 82.942149  
765.000000	 84.785519  
764.000000	 86.441608  
763.000000	 87.866456  
762.000000	 89.064322  
761.000000	 90.075371  
760.000000	 90.932183  
759.000000	 91.636639  
758.000000	 92.187755  
757.000000	 92.614165  
756.000000	 92.963750  
755.000000	 93.271693  
754.000000	 93.549810  
753.000000	 93.799417  
752.000000	 94.027106  
751.000000	 94.252075  
750.000000	 94.496516  
749.000000	 94.760292  
748.000000	 95.011683  
747.000000	 95.220395  
746.000000	 95.396062  
745.000000	 95.572745  
744.000000	 95.757412  
743.000000	 95.920192  
742.000000	 96.039798  
741.000000	 96.131734  
740.000000	 96.221100  
739.000000	 96.310828  
738.000000	 96.389620  
737.000000	 96.452757  
736.000000	 96.503941  
735.000000	 96.552575  
734.000000	 96.617192  
733.000000	 96.712941  
732.000000	 96.825527  
731.000000	 96.915965  
730.000000	 96.963426  
729.000000	 96.988267  
728.000000	 97.023868  
727.000000	 97.082024  
726.000000	 97.155508  
725.000000	 97.236178  
724.000000	 97.313862  
723.000000	 97.370835  
722.000000	 97.395524  
721.000000	 97.398161  
720.000000	 97.400461  
719.000000	 97.409585  
718.000000	 97.414455  
717.000000	 97.406121  
716.000000	 97.388017  
715.000000	 97.368087  
714.000000	 97.348153  
713.000000	 97.321371  
712.000000	 97.281305  
711.000000	 97.234710  
710.000000	 97.200621  
709.000000	 97.190989  
708.000000	 97.197190  
707.000000	 97.201484  
706.000000	 97.193344  
705.000000	 97.168157  
704.000000	 97.121418  
703.000000	 97.058724  
702.000000	 97.004079  
701.000000	 96.977918  
700.000000	 96.969474  
699.000000	 96.952015  
698.000000	 96.922539  
697.000000	 96.905693  
696.000000	 96.916551  
695.000000	 96.940120  
694.000000	 96.955805  
693.000000	 96.960579  
692.000000	 96.958602  
691.000000	 96.948874  
690.000000	 96.935320  
689.000000	 96.935259  
688.000000	 96.960406  
687.000000	 96.995599  
686.000000	 97.011490  
685.000000	 96.994896  
684.000000	 96.959962  
683.000000	 96.931397  
682.000000	 96.914804  
681.000000	 96.882916  
680.000000	 96.803587  
679.000000	 96.691027  
678.000000	 96.607139  
677.000000	 96.593252  
676.000000	 96.622721  
675.000000	 96.635602  
674.000000	 96.609371  
673.000000	 96.571308  
672.000000	 96.552179  
671.000000	 96.552924  
670.000000	 96.541571  
669.000000	 96.461171  
668.000000	 96.272229  
667.000000	 95.976194  
666.000000	 95.644772  
665.000000	 95.319525  
664.000000	 94.964299  
663.000000	 94.518827  
662.000000	 93.948146  
661.000000	 93.229972  
660.000000	 92.329841  
659.000000	 91.210379  
658.000000	 89.845765  
657.000000	 88.205999  
656.000000	 86.280483  
655.000000	 84.143939  
654.000000	 81.905171  
653.000000	 79.643127  
652.000000	 77.425432  
651.000000	 75.450391  
650.000000	 73.841352  

