PE IR                   SPECTRUM    ASCII       PEDS        1.60        
  -1
~SP.SP
18/04/18
12:38:55.00
18/04/18
12:38:55.00
Claudia

650.000000
16









SPECTRUM 100,CPU32 MAIN 00.02.8200 12-DECEMBER-2006 10:00:00
MIR TGS
MIR
OPTKBR
78890
0.200000

4.000000
STRONG
RATIO
SPECTRUM
MAGNITUDE
UNIVERSAL ATR
DOUBLE

COMBINED


0


#HDR
-1
-1
#GR
CM-1
%T
0.00002384185791015625
0.0
4000.000000
-1.000000
3351
8
98.112999
29.347890
#DATA
4000.000000	97.886362 
3999.000000	97.883691 
3998.000000	97.878162 
3997.000000	97.874121 
3996.000000	97.887500 
3995.000000	97.894477 
3994.000000	97.903050 
3993.000000	97.910188 
3992.000000	97.913386 
3991.000000	97.911926 
3990.000000	97.907504 
3989.000000	97.902973 
3988.000000	97.900331 
3987.000000	97.899655 
3986.000000	97.899514 
3985.000000	97.898239 
3984.000000	97.895333 
3983.000000	97.891917 
3982.000000	97.889721 
3981.000000	97.889631 
3980.000000	97.891366 
3979.000000	97.894384 
3978.000000	97.898317 
3977.000000	97.902296 
3976.000000	97.904745 
3975.000000	97.904547 
3974.000000	97.902094 
3973.000000	97.898757 
3972.000000	97.895667 
3971.000000	97.893330 
3970.000000	97.891690 
3969.000000	97.890144 
3968.000000	97.888091 
3967.000000	97.885702 
3966.000000	97.883857 
3965.000000	97.883006 
3964.000000	97.882554 
3963.000000	97.881915 
3962.000000	97.881851 
3961.000000	97.883999 
3960.000000	97.889274 
3959.000000	97.897361 
3958.000000	97.907155 
3957.000000	97.917213 
3956.000000	97.926215 
3955.000000	97.933401 
3954.000000	97.938656 
3953.000000	97.941696 
3952.000000	97.941518 
3951.000000	97.937259 
3950.000000	97.929591 
3949.000000	97.921630 
3948.000000	97.917867 
3947.000000	97.921453 
3946.000000	97.931944 
3945.000000	97.945172 
3944.000000	97.955472 
3943.000000	97.958911 
3942.000000	97.955660 
3941.000000	97.949072 
3940.000000	97.942566 
3939.000000	97.937861 
3938.000000	97.934963 
3937.000000	97.932599 
3936.000000	97.929161 
3935.000000	97.923915 
3934.000000	97.917978 
3933.000000	97.913372 
3932.000000	97.911072 
3931.000000	97.910013 
3930.000000	97.908622 
3929.000000	97.907212 
3928.000000	97.907723 
3927.000000	97.911133 
3926.000000	97.915729 
3925.000000	97.917576 
3924.000000	97.913794 
3923.000000	97.905674 
3922.000000	97.897707 
3921.000000	97.894181 
3920.000000	97.896299 
3919.000000	97.901982 
3918.000000	97.908069 
3917.000000	97.912800 
3916.000000	97.916765 
3915.000000	97.921556 
3914.000000	97.927789 
3913.000000	97.934232 
3912.000000	97.938911 
3911.000000	97.941528 
3910.000000	97.944093 
3909.000000	97.949355 
3908.000000	97.959011 
3907.000000	97.972124 
3906.000000	97.984695 
3905.000000	97.990490 
3904.000000	97.985000 
3903.000000	97.970521 
3902.000000	97.954918 
3901.000000	97.945224 
3900.000000	97.943876 
3899.000000	97.949117 
3898.000000	97.958119 
3897.000000	97.968618 
3896.000000	97.978676 
3895.000000	97.986963 
3894.000000	97.992901 
3893.000000	97.995607 
3892.000000	97.993591 
3891.000000	97.986537 
3890.000000	97.977222 
3889.000000	97.969398 
3888.000000	97.966034 
3887.000000	97.968938 
3886.000000	97.977376 
3885.000000	97.986888 
3884.000000	97.992036 
3883.000000	97.990213 
3882.000000	97.982951 
3881.000000	97.974801 
3880.000000	97.970361 
3879.000000	97.969851 
3878.000000	97.970043 
3877.000000	97.969061 
3876.000000	97.969266 
3875.000000	97.974426 
3874.000000	97.984200 
3873.000000	97.993190 
3872.000000	97.996567 
3871.000000	97.994816 
3870.000000	97.992661 
3869.000000	97.994169 
3868.000000	97.998017 
3867.000000	97.999521 
3866.000000	97.997107 
3865.000000	97.993846 
3864.000000	97.993318 
3863.000000	97.995437 
3862.000000	97.996351 
3861.000000	97.993528 
3860.000000	97.989275 
3859.000000	97.988346 
3858.000000	97.992999 
3857.000000	98.001031 
3856.000000	98.008275 
3855.000000	98.013243 
3854.000000	98.013238 
3853.000000	98.005866 
3852.000000	97.995617 
3851.000000	97.987839 
3850.000000	97.983004 
3849.000000	97.981577 
3848.000000	97.984211 
3847.000000	97.990726 
3846.000000	97.998942 
3845.000000	98.005314 
3844.000000	98.008265 
3843.000000	98.009942 
3842.000000	98.013193 
3841.000000	98.019194 
3840.000000	98.027321 
3839.000000	98.035339 
3838.000000	98.040454 
3837.000000	98.040892 
3836.000000	98.037178 
3835.000000	98.031063 
3834.000000	98.023195 
3833.000000	98.013641 
3832.000000	98.003707 
3831.000000	97.996007 
3830.000000	97.992538 
3829.000000	97.992732 
3828.000000	97.995013 
3827.000000	97.999890 
3826.000000	98.008622 
3825.000000	98.019310 
3824.000000	98.026773 
3823.000000	98.027508 
3822.000000	98.023166 
3821.000000	98.019216 
3820.000000	98.020235 
3819.000000	98.025209 
3818.000000	98.028882 
3817.000000	98.028259 
3816.000000	98.025585 
3815.000000	98.024305 
3814.000000	98.023851 
3813.000000	98.021105 
3812.000000	98.014578 
3811.000000	98.005566 
3810.000000	97.996075 
3809.000000	97.987663 
3808.000000	97.982264 
3807.000000	97.982676 
3806.000000	97.989487 
3805.000000	97.998741 
3804.000000	98.003929 
3803.000000	98.001684 
3802.000000	97.994707 
3801.000000	97.989106 
3800.000000	97.988867 
3799.000000	97.992906 
3798.000000	97.998013 
3797.000000	98.002446 
3796.000000	98.005540 
3795.000000	98.006393 
3794.000000	98.004585 
3793.000000	98.001973 
3792.000000	98.002217 
3791.000000	98.007751 
3790.000000	98.017038 
3789.000000	98.025473 
3788.000000	98.029360 
3787.000000	98.028719 
3786.000000	98.026714 
3785.000000	98.026480 
3784.000000	98.028141 
3783.000000	98.028628 
3782.000000	98.024627 
3781.000000	98.016011 
3780.000000	98.006789 
3779.000000	98.002451 
3778.000000	98.005008 
3777.000000	98.011496 
3776.000000	98.017768 
3775.000000	98.022455 
3774.000000	98.026316 
3773.000000	98.029382 
3772.000000	98.030582 
3771.000000	98.029666 
3770.000000	98.027843 
3769.000000	98.026564 
3768.000000	98.026146 
3767.000000	98.025360 
3766.000000	98.023507 
3765.000000	98.021389 
3764.000000	98.019864 
3763.000000	98.018862 
3762.000000	98.018354 
3761.000000	98.019056 
3760.000000	98.020698 
3759.000000	98.021624 
3758.000000	98.020630 
3757.000000	98.018173 
3756.000000	98.015671 
3755.000000	98.014228 
3754.000000	98.013903 
3753.000000	98.013558 
3752.000000	98.010910 
3751.000000	98.004379 
3750.000000	97.996964 
3749.000000	97.992889 
3748.000000	97.991206 
3747.000000	97.986592 
3746.000000	97.975738 
3745.000000	97.961167 
3744.000000	97.950149 
3743.000000	97.945575 
3742.000000	97.942421 
3741.000000	97.935014 
3740.000000	97.922061 
3739.000000	97.906180 
3738.000000	97.892845 
3737.000000	97.887181 
3736.000000	97.889888 
3735.000000	97.895772 
3734.000000	97.897083 
3733.000000	97.889441 
3732.000000	97.874637 
3731.000000	97.858323 
3730.000000	97.845280 
3729.000000	97.837152 
3728.000000	97.834113 
3727.000000	97.835727 
3726.000000	97.839967 
3725.000000	97.844707 
3724.000000	97.850978 
3723.000000	97.862206 
3722.000000	97.879541 
3721.000000	97.900929 
3720.000000	97.923278 
3719.000000	97.944137 
3718.000000	97.961830 
3717.000000	97.973292 
3716.000000	97.974655 
3715.000000	97.963370 
3714.000000	97.940490 
3713.000000	97.913439 
3712.000000	97.892492 
3711.000000	97.885065 
3710.000000	97.890353 
3709.000000	97.901407 
3708.000000	97.911463 
3707.000000	97.916849 
3706.000000	97.918128 
3705.000000	97.918506 
3704.000000	97.922169 
3703.000000	97.930785 
3702.000000	97.941670 
3701.000000	97.950334 
3700.000000	97.955254 
3699.000000	97.957581 
3698.000000	97.959610 
3697.000000	97.962609 
3696.000000	97.965657 
3695.000000	97.967203 
3694.000000	97.968140 
3693.000000	97.973912 
3692.000000	97.990123 
3691.000000	98.015877 
3690.000000	98.038957 
3689.000000	98.046422 
3688.000000	98.039414 
3687.000000	98.029213 
3686.000000	98.023345 
3685.000000	98.022267 
3684.000000	98.024344 
3683.000000	98.028951 
3682.000000	98.036650 
3681.000000	98.046201 
3680.000000	98.054523 
3679.000000	98.058648 
3678.000000	98.059244 
3677.000000	98.062061 
3676.000000	98.070817 
3675.000000	98.082329 
3674.000000	98.090999 
3673.000000	98.092542 
3672.000000	98.085404 
3671.000000	98.074520 
3670.000000	98.067678 
3669.000000	98.069215 
3668.000000	98.077204 
3667.000000	98.085882 
3666.000000	98.090888 
3665.000000	98.091733 
3664.000000	98.090174 
3663.000000	98.088032 
3662.000000	98.086261 
3661.000000	98.085309 
3660.000000	98.085679 
3659.000000	98.087414 
3658.000000	98.090075 
3657.000000	98.093343 
3656.000000	98.097830 
3655.000000	98.104215 
3654.000000	98.110602 
3653.000000	98.112999 
3652.000000	98.108983 
3651.000000	98.100130 
3650.000000	98.088757 
3649.000000	98.075763 
3648.000000	98.063597 
3647.000000	98.055707 
3646.000000	98.052841 
3645.000000	98.052758 
3644.000000	98.051872 
3643.000000	98.047349 
3642.000000	98.038843 
3641.000000	98.028431 
3640.000000	98.019757 
3639.000000	98.015668 
3638.000000	98.015874 
3637.000000	98.016349 
3636.000000	98.012298 
3635.000000	98.002884 
3634.000000	97.991952 
3633.000000	97.983534 
3632.000000	97.978162 
3631.000000	97.974664 
3630.000000	97.973599 
3629.000000	97.975077 
3628.000000	97.976885 
3627.000000	97.976755 
3626.000000	97.973988 
3625.000000	97.971177 
3624.000000	97.973474 
3623.000000	97.984729 
3622.000000	98.004521 
3621.000000	98.027758 
3620.000000	98.046096 
3619.000000	98.053791 
3618.000000	98.053933 
3617.000000	98.053749 
3616.000000	98.056084 
3615.000000	98.058528 
3614.000000	98.057326 
3613.000000	98.051347 
3612.000000	98.042226 
3611.000000	98.031161 
3610.000000	98.017561 
3609.000000	98.002021 
3608.000000	97.987319 
3607.000000	97.975961 
3606.000000	97.968174 
3605.000000	97.962019 
3604.000000	97.955460 
3603.000000	97.947718 
3602.000000	97.941367 
3601.000000	97.941731 
3600.000000	97.951384 
3599.000000	97.965933 
3598.000000	97.977348 
3597.000000	97.980949 
3596.000000	97.978588 
3595.000000	97.975714 
3594.000000	97.975374 
3593.000000	97.977724 
3592.000000	97.982596 
3591.000000	97.991107 
3590.000000	98.004451 
3589.000000	98.021944 
3588.000000	98.038752 
3587.000000	98.048568 
3586.000000	98.049890 
3585.000000	98.046174 
3584.000000	98.042050 
3583.000000	98.040086 
3582.000000	98.041186 
3581.000000	98.044547 
3580.000000	98.047785 
3579.000000	98.048043 
3578.000000	98.044480 
3577.000000	98.040207 
3576.000000	98.039918 
3575.000000	98.046209 
3574.000000	98.056834 
3573.000000	98.066566 
3572.000000	98.070573 
3571.000000	98.067218 
3570.000000	98.059095 
3569.000000	98.052925 
3568.000000	98.055072 
3567.000000	98.064769 
3566.000000	98.074350 
3565.000000	98.077349 
3564.000000	98.072852 
3563.000000	98.063568 
3562.000000	98.052860 
3561.000000	98.043962 
3560.000000	98.039991 
3559.000000	98.042621 
3558.000000	98.050719 
3557.000000	98.060908 
3556.000000	98.069449 
3555.000000	98.073987 
3554.000000	98.074803 
3553.000000	98.074685 
3552.000000	98.076950 
3551.000000	98.082165 
3550.000000	98.087175 
3549.000000	98.088033 
3548.000000	98.083809 
3547.000000	98.077048 
3546.000000	98.071415 
3545.000000	98.069308 
3544.000000	98.071311 
3543.000000	98.076292 
3542.000000	98.081318 
3541.000000	98.083006 
3540.000000	98.080050 
3539.000000	98.074328 
3538.000000	98.069299 
3537.000000	98.066961 
3536.000000	98.066411 
3535.000000	98.065082 
3534.000000	98.061556 
3533.000000	98.057292 
3532.000000	98.055512 
3531.000000	98.058378 
3530.000000	98.064916 
3529.000000	98.071741 
3528.000000	98.075723 
3527.000000	98.076014 
3526.000000	98.074182 
3525.000000	98.072836 
3524.000000	98.073379 
3523.000000	98.074476 
3522.000000	98.073305 
3521.000000	98.068673 
3520.000000	98.062531 
3519.000000	98.057834 
3518.000000	98.055614 
3517.000000	98.054370 
3516.000000	98.052191 
3515.000000	98.048917 
3514.000000	98.046145 
3513.000000	98.045585 
3512.000000	98.047363 
3511.000000	98.049719 
3510.000000	98.050537 
3509.000000	98.049388 
3508.000000	98.047659 
3507.000000	98.046598 
3506.000000	98.045962 
3505.000000	98.044414 
3504.000000	98.040807 
3503.000000	98.035043 
3502.000000	98.028340 
3501.000000	98.022586 
3500.000000	98.018788 
3499.000000	98.016279 
3498.000000	98.013976 
3497.000000	98.012428 
3496.000000	98.013532 
3495.000000	98.018002 
3494.000000	98.024126 
3493.000000	98.029433 
3492.000000	98.032849 
3491.000000	98.034717 
3490.000000	98.035709 
3489.000000	98.036362 
3488.000000	98.036915 
3487.000000	98.037030 
3486.000000	98.036351 
3485.000000	98.035658 
3484.000000	98.036585 
3483.000000	98.039497 
3482.000000	98.042201 
3481.000000	98.041667 
3480.000000	98.036840 
3479.000000	98.029306 
3478.000000	98.021666 
3477.000000	98.015694 
3476.000000	98.011588 
3475.000000	98.008675 
3474.000000	98.006875 
3473.000000	98.006892 
3472.000000	98.008407 
3471.000000	98.008990 
3470.000000	98.006301 
3469.000000	98.001264 
3468.000000	97.997442 
3467.000000	97.996908 
3466.000000	97.998132 
3465.000000	97.998293 
3464.000000	97.996181 
3463.000000	97.992410 
3462.000000	97.988426 
3461.000000	97.986208 
3460.000000	97.987448 
3459.000000	97.991747 
3458.000000	97.996459 
3457.000000	97.999201 
3456.000000	98.000109 
3455.000000	98.000853 
3454.000000	98.002353 
3453.000000	98.004398 
3452.000000	98.006649 
3451.000000	98.008894 
3450.000000	98.010369 
3449.000000	98.009993 
3448.000000	98.007728 
3447.000000	98.005584 
3446.000000	98.006711 
3445.000000	98.012883 
3444.000000	98.022436 
3443.000000	98.030845 
3442.000000	98.034035 
3441.000000	98.031507 
3440.000000	98.026117 
3439.000000	98.021237 
3438.000000	98.018547 
3437.000000	98.017621 
3436.000000	98.016642 
3435.000000	98.013971 
3434.000000	98.010386 
3433.000000	98.009450 
3432.000000	98.013854 
3431.000000	98.021407 
3430.000000	98.026290 
3429.000000	98.024885 
3428.000000	98.019071 
3427.000000	98.013519 
3426.000000	98.011303 
3425.000000	98.012765 
3424.000000	98.016814 
3423.000000	98.021737 
3422.000000	98.025525 
3421.000000	98.026707 
3420.000000	98.024931 
3419.000000	98.020604 
3418.000000	98.014745 
3417.000000	98.009435 
3416.000000	98.007061 
3415.000000	98.008271 
3414.000000	98.011457 
3413.000000	98.014722 
3412.000000	98.017549 
3411.000000	98.020183 
3410.000000	98.022623 
3409.000000	98.024820 
3408.000000	98.026729 
3407.000000	98.027672 
3406.000000	98.027101 
3405.000000	98.026487 
3404.000000	98.028686 
3403.000000	98.034140 
3402.000000	98.039224 
3401.000000	98.040060 
3400.000000	98.036920 
3399.000000	98.033209 
3398.000000	98.030934 
3397.000000	98.028968 
3396.000000	98.025654 
3395.000000	98.021609 
3394.000000	98.019432 
3393.000000	98.021093 
3392.000000	98.025607 
3391.000000	98.029291 
3390.000000	98.028999 
3389.000000	98.025343 
3388.000000	98.022074 
3387.000000	98.022221 
3386.000000	98.025816 
3385.000000	98.031287 
3384.000000	98.037397 
3383.000000	98.042904 
3382.000000	98.045824 
3381.000000	98.044542 
3380.000000	98.039114 
3379.000000	98.031049 
3378.000000	98.022677 
3377.000000	98.017116 
3376.000000	98.016936 
3375.000000	98.021330 
3374.000000	98.025792 
3373.000000	98.026295 
3372.000000	98.023378 
3371.000000	98.020874 
3370.000000	98.021021 
3369.000000	98.022052 
3368.000000	98.020516 
3367.000000	98.015027 
3366.000000	98.007652 
3365.000000	98.002049 
3364.000000	98.000161 
3363.000000	98.000694 
3362.000000	98.001199 
3361.000000	98.001301 
3360.000000	98.002656 
3359.000000	98.005534 
3358.000000	98.007016 
3357.000000	98.003840 
3356.000000	97.996369 
3355.000000	97.988742 
3354.000000	97.985141 
3353.000000	97.986463 
3352.000000	97.990303 
3351.000000	97.993690 
3350.000000	97.995744 
3349.000000	97.997474 
3348.000000	97.999029 
3347.000000	97.998169 
3346.000000	97.992806 
3345.000000	97.984407 
3344.000000	97.977127 
3343.000000	97.973411 
3342.000000	97.971741 
3341.000000	97.968844 
3340.000000	97.962724 
3339.000000	97.953467 
3338.000000	97.942637 
3337.000000	97.932305 
3336.000000	97.923493 
3335.000000	97.915401 
3334.000000	97.907293 
3333.000000	97.900648 
3332.000000	97.897569 
3331.000000	97.897238 
3330.000000	97.896214 
3329.000000	97.892515 
3328.000000	97.887193 
3327.000000	97.881467 
3326.000000	97.874922 
3325.000000	97.867328 
3324.000000	97.859422 
3323.000000	97.850528 
3322.000000	97.838115 
3321.000000	97.821857 
3320.000000	97.805912 
3319.000000	97.794555 
3318.000000	97.786738 
3317.000000	97.777441 
3316.000000	97.763674 
3315.000000	97.747106 
3314.000000	97.731146 
3313.000000	97.717259 
3312.000000	97.704291 
3311.000000	97.690194 
3310.000000	97.674128 
3309.000000	97.657018 
3308.000000	97.639575 
3307.000000	97.619995 
3306.000000	97.595101 
3305.000000	97.564281 
3304.000000	97.530882 
3303.000000	97.499083 
3302.000000	97.470893 
3301.000000	97.446553 
3300.000000	97.425493 
3299.000000	97.405286 
3298.000000	97.381969 
3297.000000	97.353948 
3296.000000	97.324499 
3295.000000	97.298258 
3294.000000	97.276044 
3293.000000	97.255213 
3292.000000	97.234369 
3291.000000	97.215229 
3290.000000	97.199593 
3289.000000	97.186629 
3288.000000	97.174054 
3287.000000	97.160764 
3286.000000	97.147337 
3285.000000	97.134374 
3284.000000	97.120988 
3283.000000	97.105147 
3282.000000	97.085587 
3281.000000	97.063287 
3280.000000	97.040817 
3279.000000	97.020391 
3278.000000	97.003014 
3277.000000	96.989018 
3276.000000	96.978184 
3275.000000	96.969195 
3274.000000	96.960000 
3273.000000	96.948922 
3272.000000	96.934677 
3271.000000	96.915820 
3270.000000	96.891902 
3269.000000	96.865429 
3268.000000	96.840909 
3267.000000	96.821201 
3266.000000	96.805846 
3265.000000	96.792970 
3264.000000	96.780821 
3263.000000	96.767057 
3262.000000	96.748984 
3261.000000	96.726166 
3260.000000	96.701307 
3259.000000	96.676955 
3258.000000	96.652582 
3257.000000	96.626341 
3256.000000	96.598532 
3255.000000	96.571473 
3254.000000	96.546643 
3253.000000	96.523604 
3252.000000	96.501533 
3251.000000	96.480347 
3250.000000	96.459951 
3249.000000	96.439311 
3248.000000	96.416791 
3247.000000	96.391425 
3246.000000	96.363953 
3245.000000	96.336455 
3244.000000	96.310508 
3243.000000	96.285791 
3242.000000	96.260820 
3241.000000	96.234617 
3240.000000	96.206999 
3239.000000	96.177721 
3238.000000	96.146275 
3237.000000	96.112265 
3236.000000	96.075491 
3235.000000	96.036615 
3234.000000	95.998584 
3233.000000	95.965517 
3232.000000	95.937899 
3231.000000	95.910142 
3230.000000	95.875782 
3229.000000	95.834801 
3228.000000	95.793167 
3227.000000	95.755610 
3226.000000	95.722128 
3225.000000	95.691514 
3224.000000	95.664084 
3223.000000	95.639267 
3222.000000	95.613676 
3221.000000	95.584092 
3220.000000	95.550694 
3219.000000	95.515735 
3218.000000	95.480695 
3217.000000	95.446204 
3216.000000	95.412938 
3215.000000	95.380632 
3214.000000	95.347215 
3213.000000	95.310477 
3212.000000	95.270204 
3211.000000	95.228208 
3210.000000	95.187127 
3209.000000	95.149197 
3208.000000	95.114382 
3207.000000	95.079175 
3206.000000	95.038906 
3205.000000	94.991925 
3204.000000	94.940079 
3203.000000	94.884967 
3202.000000	94.826024 
3201.000000	94.763257 
3200.000000	94.699508 
3199.000000	94.638226 
3198.000000	94.580133 
3197.000000	94.523173 
3196.000000	94.464577 
3195.000000	94.402156 
3194.000000	94.334984 
3193.000000	94.263829 
3192.000000	94.189968 
3191.000000	94.113234 
3190.000000	94.032584 
3189.000000	93.948674 
3188.000000	93.863674 
3187.000000	93.777939 
3186.000000	93.689097 
3185.000000	93.595644 
3184.000000	93.499710 
3183.000000	93.405106 
3182.000000	93.314244 
3181.000000	93.227676 
3180.000000	93.144503 
3179.000000	93.061933 
3178.000000	92.976492 
3177.000000	92.887617 
3176.000000	92.798780 
3175.000000	92.713479 
3174.000000	92.631192 
3173.000000	92.548582 
3172.000000	92.463734 
3171.000000	92.377894 
3170.000000	92.293719 
3169.000000	92.212985 
3168.000000	92.135560 
3167.000000	92.059863 
3166.000000	91.984454 
3165.000000	91.909137 
3164.000000	91.833894 
3163.000000	91.757258 
3162.000000	91.677301 
3161.000000	91.594198 
3160.000000	91.510087 
3159.000000	91.426282 
3158.000000	91.342567 
3157.000000	91.259528 
3156.000000	91.178940 
3155.000000	91.100158 
3154.000000	91.017820 
3153.000000	90.925306 
3152.000000	90.820369 
3151.000000	90.706443 
3150.000000	90.588825 
3149.000000	90.470325 
3148.000000	90.350133 
3147.000000	90.225863 
3146.000000	90.096152 
3145.000000	89.961174 
3144.000000	89.821180 
3143.000000	89.675802 
3142.000000	89.525272 
3141.000000	89.370574 
3140.000000	89.210946 
3139.000000	89.042577 
3138.000000	88.861824 
3137.000000	88.668941 
3136.000000	88.467041 
3135.000000	88.258814 
3134.000000	88.046497 
3133.000000	87.833101 
3132.000000	87.619535 
3131.000000	87.400731 
3130.000000	87.168618 
3129.000000	86.920007 
3128.000000	86.659116 
3127.000000	86.392233 
3126.000000	86.122949 
3125.000000	85.852875 
3124.000000	85.582912 
3123.000000	85.311439 
3122.000000	85.033827 
3121.000000	84.746228 
3120.000000	84.448694 
3119.000000	84.143406 
3118.000000	83.831592 
3117.000000	83.513842 
3116.000000	83.192309 
3115.000000	82.870961 
3114.000000	82.553822 
3113.000000	82.243213 
3112.000000	81.939006 
3111.000000	81.639393 
3110.000000	81.342761 
3109.000000	81.048188 
3108.000000	80.753559 
3107.000000	80.455156 
3106.000000	80.151564 
3105.000000	79.847136 
3104.000000	79.548643 
3103.000000	79.258303 
3102.000000	78.972146 
3101.000000	78.684872 
3100.000000	78.393714 
3099.000000	78.097530 
3098.000000	77.795480 
3097.000000	77.488190 
3096.000000	77.178286 
3095.000000	76.868254 
3094.000000	76.558650 
3093.000000	76.248819 
3092.000000	75.938256 
3091.000000	75.627185 
3090.000000	75.317116 
3089.000000	75.010946 
3088.000000	74.711326 
3087.000000	74.419179 
3086.000000	74.134982 
3085.000000	73.861020 
3084.000000	73.600826 
3083.000000	73.356893 
3082.000000	73.130378 
3081.000000	72.922366 
3080.000000	72.733799 
3079.000000	72.564954 
3078.000000	72.416986 
3077.000000	72.293407 
3076.000000	72.198086 
3075.000000	72.132034 
3074.000000	72.093580 
3073.000000	72.080939 
3072.000000	72.092896 
3071.000000	72.127661 
3070.000000	72.182786 
3069.000000	72.255908 
3068.000000	72.344690 
3067.000000	72.447129 
3066.000000	72.563034 
3065.000000	72.693569 
3064.000000	72.837684 
3063.000000	72.990711 
3062.000000	73.148393 
3061.000000	73.310531 
3060.000000	73.478299 
3059.000000	73.649250 
3058.000000	73.817537 
3057.000000	73.978394 
3056.000000	74.130665 
3055.000000	74.276295 
3054.000000	74.419403 
3053.000000	74.564229 
3052.000000	74.710826 
3051.000000	74.853496 
3050.000000	74.986283 
3049.000000	75.109698 
3048.000000	75.229823 
3047.000000	75.351293 
3046.000000	75.473553 
3045.000000	75.593296 
3044.000000	75.707776 
3043.000000	75.815815 
3042.000000	75.917945 
3041.000000	76.015916 
3040.000000	76.110749 
3039.000000	76.201674 
3038.000000	76.288192 
3037.000000	76.371961 
3036.000000	76.454840 
3035.000000	76.536406 
3034.000000	76.615675 
3033.000000	76.694027 
3032.000000	76.773837 
3031.000000	76.855123 
3030.000000	76.936220 
3029.000000	77.017155 
3028.000000	77.099646 
3027.000000	77.184185 
3026.000000	77.269331 
3025.000000	77.353339 
3024.000000	77.434540 
3023.000000	77.511189 
3022.000000	77.583396 
3021.000000	77.654081 
3020.000000	77.725175 
3019.000000	77.793800 
3018.000000	77.855226 
3017.000000	77.908901 
3016.000000	77.958104 
3015.000000	78.003641 
3014.000000	78.041078 
3013.000000	78.064351 
3012.000000	78.069168 
3011.000000	78.052112 
3010.000000	78.008368 
3009.000000	77.930396 
3008.000000	77.807818 
3007.000000	77.632353 
3006.000000	77.410476 
3005.000000	77.175350 
3004.000000	76.982884 
3003.000000	76.888587 
3002.000000	76.920665 
3001.000000	77.066440 
3000.000000	77.278741 
2999.000000	77.497193 
2998.000000	77.672749 
2997.000000	77.780637 
2996.000000	77.814143 
2995.000000	77.767741 
2994.000000	77.625135 
2993.000000	77.360822 
2992.000000	76.954860 
2991.000000	76.416192 
2990.000000	75.803152 
2989.000000	75.220177 
2988.000000	74.778894 
2987.000000	74.545807 
2986.000000	74.517609 
2985.000000	74.642869 
2984.000000	74.864962 
2983.000000	75.148522 
2982.000000	75.476045 
2981.000000	75.830316 
2980.000000	76.184601 
2979.000000	76.508609 
2978.000000	76.781984 
2977.000000	77.001064 
2976.000000	77.173415 
2975.000000	77.307894 
2974.000000	77.411267 
2973.000000	77.492836 
2972.000000	77.568563 
2971.000000	77.657700 
2970.000000	77.773395 
2969.000000	77.914982 
2968.000000	78.069230 
2967.000000	78.220517 
2966.000000	78.361136 
2965.000000	78.491823 
2964.000000	78.613886 
2963.000000	78.723724 
2962.000000	78.815030 
2961.000000	78.882160 
2960.000000	78.918588 
2959.000000	78.915153 
2958.000000	78.863836 
2957.000000	78.763204 
2956.000000	78.619160 
2955.000000	78.443169 
2954.000000	78.252593 
2953.000000	78.070006 
2952.000000	77.916546 
2951.000000	77.803467 
2950.000000	77.729873 
2949.000000	77.686106 
2948.000000	77.657503 
2947.000000	77.628447 
2946.000000	77.588327 
2945.000000	77.534616 
2944.000000	77.468856 
2943.000000	77.391090 
2942.000000	77.300425 
2941.000000	77.199087 
2940.000000	77.092207 
2939.000000	76.984258 
2938.000000	76.878309 
2937.000000	76.777241 
2936.000000	76.682238 
2935.000000	76.591031 
2934.000000	76.500914 
2933.000000	76.412485 
2932.000000	76.327404 
2931.000000	76.244039 
2930.000000	76.159514 
2929.000000	76.075238 
2928.000000	75.996216 
2927.000000	75.924984 
2926.000000	75.860125 
2925.000000	75.800664 
2924.000000	75.748101 
2923.000000	75.703816 
2922.000000	75.668249 
2921.000000	75.643308 
2920.000000	75.632347 
2919.000000	75.636801 
2918.000000	75.654996 
2917.000000	75.684396 
2916.000000	75.722590 
2915.000000	75.766122 
2914.000000	75.811108 
2913.000000	75.855839 
2912.000000	75.901365 
2911.000000	75.949355 
2910.000000	76.000548 
2909.000000	76.054271 
2908.000000	76.107378 
2907.000000	76.154413 
2906.000000	76.191299 
2905.000000	76.218854 
2904.000000	76.240983 
2903.000000	76.259765 
2902.000000	76.274518 
2901.000000	76.283734 
2900.000000	76.286008 
2899.000000	76.279421 
2898.000000	76.262564 
2897.000000	76.236324 
2896.000000	76.202396 
2895.000000	76.160610 
2894.000000	76.110031 
2893.000000	76.052124 
2892.000000	75.990022 
2891.000000	75.924485 
2890.000000	75.852917 
2889.000000	75.772745 
2888.000000	75.684050 
2887.000000	75.588958 
2886.000000	75.490155 
2885.000000	75.390085 
2884.000000	75.290342 
2883.000000	75.192034 
2882.000000	75.097346 
2881.000000	75.009297 
2880.000000	74.928721 
2879.000000	74.853212 
2878.000000	74.780797 
2877.000000	74.712739 
2876.000000	74.650592 
2875.000000	74.592780 
2874.000000	74.537099 
2873.000000	74.484595 
2872.000000	74.437020 
2871.000000	74.391623 
2870.000000	74.342864 
2869.000000	74.289543 
2868.000000	74.236694 
2867.000000	74.189695 
2866.000000	74.149238 
2865.000000	74.112747 
2864.000000	74.078267 
2863.000000	74.046174 
2862.000000	74.018887 
2861.000000	73.999486 
2860.000000	73.989337 
2859.000000	73.987263 
2858.000000	73.992274 
2857.000000	74.006438 
2856.000000	74.033614 
2855.000000	74.076109 
2854.000000	74.133798 
2853.000000	74.204944 
2852.000000	74.286029 
2851.000000	74.372406 
2850.000000	74.461608 
2849.000000	74.555018 
2848.000000	74.653928 
2847.000000	74.754972 
2846.000000	74.851870 
2845.000000	74.940647 
2844.000000	75.020602 
2843.000000	75.090995 
2842.000000	75.149801 
2841.000000	75.195631 
2840.000000	75.228405 
2839.000000	75.248241 
2838.000000	75.255983 
2837.000000	75.254779 
2836.000000	75.248664 
2835.000000	75.239043 
2834.000000	75.224088 
2833.000000	75.201664 
2832.000000	75.171349 
2831.000000	75.133752 
2830.000000	75.089515 
2829.000000	75.039021 
2828.000000	74.981789 
2827.000000	74.916102 
2826.000000	74.840027 
2825.000000	74.752445 
2824.000000	74.652591 
2823.000000	74.539995 
2822.000000	74.416112 
2821.000000	74.284942 
2820.000000	74.150935 
2819.000000	74.017455 
2818.000000	73.887955 
2817.000000	73.766284 
2816.000000	73.653955 
2815.000000	73.548966 
2814.000000	73.449461 
2813.000000	73.357080 
2812.000000	73.275007 
2811.000000	73.204803 
2810.000000	73.147305 
2809.000000	73.104440 
2808.000000	73.076893 
2807.000000	73.061083 
2806.000000	73.051237 
2805.000000	73.043893 
2804.000000	73.038489 
2803.000000	73.034690 
2802.000000	73.031530 
2801.000000	73.028454 
2800.000000	73.025314 
2799.000000	73.022230 
2798.000000	73.020922 
2797.000000	73.024632 
2796.000000	73.034846 
2795.000000	73.049481 
2794.000000	73.066103 
2793.000000	73.085304 
2792.000000	73.109127 
2791.000000	73.138277 
2790.000000	73.173171 
2789.000000	73.215590 
2788.000000	73.266205 
2787.000000	73.321887 
2786.000000	73.378392 
2785.000000	73.434717 
2784.000000	73.492431 
2783.000000	73.551809 
2782.000000	73.610932 
2781.000000	73.667237 
2780.000000	73.717571 
2779.000000	73.758238 
2778.000000	73.787769 
2777.000000	73.808550 
2776.000000	73.823383 
2775.000000	73.831800 
2774.000000	73.832226 
2773.000000	73.825986 
2772.000000	73.815975 
2771.000000	73.802596 
2770.000000	73.784133 
2769.000000	73.760112 
2768.000000	73.731262 
2767.000000	73.697144 
2766.000000	73.656938 
2765.000000	73.611718 
2764.000000	73.562569 
2763.000000	73.506926 
2762.000000	73.439979 
2761.000000	73.359622 
2760.000000	73.267134 
2759.000000	73.162931 
2758.000000	73.044299 
2757.000000	72.907728 
2756.000000	72.751775 
2755.000000	72.577957 
2754.000000	72.390475 
2753.000000	72.194260 
2752.000000	71.991345 
2751.000000	71.779861 
2750.000000	71.558290 
2749.000000	71.329478 
2748.000000	71.098765 
2747.000000	70.870015 
2746.000000	70.645958 
2745.000000	70.430664 
2744.000000	70.228598 
2743.000000	70.042334 
2742.000000	69.873752 
2741.000000	69.725957 
2740.000000	69.600826 
2739.000000	69.495692 
2738.000000	69.405721 
2737.000000	69.329243 
2736.000000	69.268180 
2735.000000	69.223802 
2734.000000	69.194860 
2733.000000	69.179938 
2732.000000	69.179549 
2731.000000	69.195861 
2730.000000	69.231700 
2729.000000	69.289177 
2728.000000	69.367830 
2727.000000	69.464667 
2726.000000	69.576787 
2725.000000	69.702473 
2724.000000	69.838867 
2723.000000	69.981111 
2722.000000	70.126028 
2721.000000	70.274901 
2720.000000	70.430224 
2719.000000	70.591224 
2718.000000	70.755028 
2717.000000	70.920862 
2716.000000	71.090448 
2715.000000	71.265146 
2714.000000	71.445370 
2713.000000	71.632583 
2712.000000	71.829727 
2711.000000	72.039623 
2710.000000	72.263961 
2709.000000	72.503077 
2708.000000	72.755416 
2707.000000	73.018101 
2706.000000	73.289295 
2705.000000	73.569270 
2704.000000	73.858362 
2703.000000	74.155115 
2702.000000	74.457146 
2701.000000	74.762095 
2700.000000	75.066780 
2699.000000	75.367524 
2698.000000	75.662805 
2697.000000	75.953698 
2696.000000	76.240276 
2695.000000	76.519493 
2694.000000	76.788104 
2693.000000	77.045479 
2692.000000	77.291900 
2691.000000	77.526526 
2690.000000	77.749173 
2689.000000	77.961696 
2688.000000	78.164995 
2687.000000	78.356718 
2686.000000	78.534419 
2685.000000	78.698853 
2684.000000	78.851513 
2683.000000	78.991354 
2682.000000	79.117383 
2681.000000	79.232424 
2680.000000	79.340391 
2679.000000	79.441192 
2678.000000	79.532150 
2677.000000	79.613510 
2676.000000	79.688686 
2675.000000	79.759428 
2674.000000	79.824273 
2673.000000	79.881620 
2672.000000	79.931365 
2671.000000	79.973640 
2670.000000	80.008572 
2669.000000	80.036899 
2668.000000	80.058439 
2667.000000	80.070673 
2666.000000	80.071224 
2665.000000	80.060669 
2664.000000	80.040428 
2663.000000	80.009430 
2662.000000	79.965914 
2661.000000	79.911020 
2660.000000	79.846861 
2659.000000	79.772081 
2658.000000	79.683219 
2657.000000	79.579730 
2656.000000	79.463654 
2655.000000	79.334729 
2654.000000	79.190193 
2653.000000	79.030050 
2652.000000	78.859034 
2651.000000	78.682680 
2650.000000	78.503981 
2649.000000	78.323531 
2648.000000	78.139879 
2647.000000	77.950160 
2646.000000	77.753761 
2645.000000	77.555218 
2644.000000	77.360571 
2643.000000	77.171495 
2642.000000	76.985902 
2641.000000	76.802904 
2640.000000	76.623160 
2639.000000	76.445578 
2638.000000	76.268714 
2637.000000	76.095474 
2636.000000	75.931640 
2635.000000	75.778565 
2634.000000	75.630718 
2633.000000	75.481174 
2632.000000	75.326785 
2631.000000	75.167901 
2630.000000	75.006029 
2629.000000	74.842037 
2628.000000	74.674307 
2627.000000	74.499154 
2626.000000	74.315413 
2625.000000	74.127346 
2624.000000	73.940146 
2623.000000	73.754056 
2622.000000	73.566306 
2621.000000	73.377084 
2620.000000	73.189301 
2619.000000	73.003413 
2618.000000	72.816726 
2617.000000	72.627385 
2616.000000	72.435204 
2615.000000	72.238775 
2614.000000	72.035127 
2613.000000	71.821981 
2612.000000	71.597813 
2611.000000	71.361127 
2610.000000	71.113132 
2609.000000	70.860505 
2608.000000	70.612995 
2607.000000	70.379623 
2606.000000	70.169018 
2605.000000	69.990002 
2604.000000	69.847576 
2603.000000	69.740403 
2602.000000	69.666008 
2601.000000	69.626538 
2600.000000	69.626116 
2599.000000	69.665037 
2598.000000	69.740493 
2597.000000	69.850999 
2596.000000	69.996382 
2595.000000	70.175168 
2594.000000	70.385103 
2593.000000	70.624226 
2592.000000	70.888636 
2591.000000	71.171796 
2590.000000	71.469203 
2589.000000	71.780987 
2588.000000	72.106527 
2587.000000	72.439496 
2586.000000	72.772498 
2585.000000	73.104479 
2584.000000	73.439056 
2583.000000	73.776555 
2582.000000	74.111430 
2581.000000	74.436864 
2580.000000	74.749082 
2579.000000	75.048018 
2578.000000	75.336025 
2577.000000	75.614822 
2576.000000	75.882114 
2575.000000	76.133231 
2574.000000	76.367426 
2573.000000	76.589202 
2572.000000	76.801084 
2571.000000	76.998820 
2570.000000	77.176822 
2569.000000	77.334675 
2568.000000	77.474756 
2567.000000	77.597429 
2566.000000	77.702968 
2565.000000	77.794527 
2564.000000	77.874150 
2563.000000	77.939067 
2562.000000	77.987236 
2561.000000	78.023714 
2560.000000	78.056243 
2559.000000	78.086935 
2558.000000	78.113133 
2557.000000	78.133216 
2556.000000	78.145742 
2555.000000	78.145736 
2554.000000	78.128335 
2553.000000	78.094605 
2552.000000	78.048327 
2551.000000	77.989169 
2550.000000	77.914788 
2549.000000	77.827504 
2548.000000	77.732630 
2547.000000	77.631674 
2546.000000	77.523196 
2545.000000	77.409300 
2544.000000	77.295858 
2543.000000	77.187448 
2542.000000	77.086781 
2541.000000	76.997167 
2540.000000	76.920481 
2539.000000	76.854783 
2538.000000	76.799045 
2537.000000	76.758086 
2536.000000	76.737578 
2535.000000	76.736144 
2534.000000	76.747239 
2533.000000	76.766618 
2532.000000	76.793269 
2531.000000	76.825637 
2530.000000	76.862047 
2529.000000	76.902537 
2528.000000	76.945646 
2527.000000	76.986333 
2526.000000	77.022044 
2525.000000	77.057823 
2524.000000	77.100260 
2523.000000	77.149544 
2522.000000	77.202987 
2521.000000	77.263133 
2520.000000	77.336406 
2519.000000	77.426716 
2518.000000	77.536336 
2517.000000	77.669834 
2516.000000	77.830159 
2515.000000	78.012754 
2514.000000	78.209902 
2513.000000	78.419550 
2512.000000	78.644688 
2511.000000	78.886157 
2510.000000	79.141439 
2509.000000	79.408185 
2508.000000	79.683127 
2507.000000	79.959622 
2506.000000	80.232053 
2505.000000	80.500959 
2504.000000	80.768416 
2503.000000	81.030557 
2502.000000	81.280517 
2501.000000	81.516642 
2500.000000	81.741648 
2499.000000	81.955448 
2498.000000	82.155076 
2497.000000	82.339876 
2496.000000	82.510279 
2495.000000	82.663316 
2494.000000	82.796340 
2493.000000	82.913862 
2492.000000	83.023489 
2491.000000	83.126065 
2490.000000	83.216936 
2489.000000	83.295949 
2488.000000	83.368405 
2487.000000	83.436336 
2486.000000	83.496488 
2485.000000	83.547525 
2484.000000	83.592675 
2483.000000	83.635398 
2482.000000	83.679208 
2481.000000	83.731178 
2480.000000	83.797980 
2479.000000	83.878175 
2478.000000	83.965554 
2477.000000	84.060191 
2476.000000	84.168618 
2475.000000	84.292555 
2474.000000	84.425251 
2473.000000	84.560345 
2472.000000	84.697154 
2471.000000	84.835549 
2470.000000	84.972745 
2469.000000	85.107600 
2468.000000	85.242013 
2467.000000	85.375786 
2466.000000	85.505556 
2465.000000	85.630531 
2464.000000	85.753777 
2463.000000	85.876159 
2462.000000	85.994359 
2461.000000	86.106324 
2460.000000	86.213272 
2459.000000	86.315146 
2458.000000	86.410049 
2457.000000	86.499917 
2456.000000	86.590926 
2455.000000	86.686016 
2454.000000	86.782065 
2453.000000	86.876161 
2452.000000	86.969415 
2451.000000	87.062856 
2450.000000	87.154729 
2449.000000	87.243710 
2448.000000	87.329953 
2447.000000	87.411792 
2446.000000	87.486786 
2445.000000	87.557296 
2444.000000	87.629179 
2443.000000	87.703379 
2442.000000	87.774752 
2441.000000	87.840994 
2440.000000	87.906282 
2439.000000	87.973244 
2438.000000	88.037560 
2437.000000	88.094695 
2436.000000	88.147502 
2435.000000	88.203092 
2434.000000	88.265109 
2433.000000	88.331780 
2432.000000	88.398915 
2431.000000	88.462918 
2430.000000	88.523098 
2429.000000	88.582041 
2428.000000	88.641854 
2427.000000	88.701300 
2426.000000	88.760262 
2425.000000	88.825126 
2424.000000	88.903569 
2423.000000	88.994015 
2422.000000	89.086287 
2421.000000	89.173576 
2420.000000	89.258293 
2419.000000	89.345246 
2418.000000	89.434780 
2417.000000	89.524070 
2416.000000	89.609704 
2415.000000	89.687069 
2414.000000	89.751949 
2413.000000	89.804599 
2412.000000	89.848396 
2411.000000	89.883878 
2410.000000	89.908704 
2409.000000	89.923627 
2408.000000	89.932592 
2407.000000	89.936094 
2406.000000	89.931108 
2405.000000	89.920104 
2404.000000	89.914473 
2403.000000	89.926027 
2402.000000	89.959240 
2401.000000	90.013089 
2400.000000	90.084480 
2399.000000	90.166424 
2398.000000	90.247526 
2397.000000	90.318409 
2396.000000	90.378148 
2395.000000	90.432881 
2394.000000	90.489198 
2393.000000	90.548944 
2392.000000	90.608229 
2391.000000	90.660842 
2390.000000	90.704014 
2389.000000	90.739821 
2388.000000	90.769301 
2387.000000	90.788440 
2386.000000	90.794823 
2385.000000	90.796702 
2384.000000	90.809923 
2383.000000	90.845637 
2382.000000	90.905123 
2381.000000	90.985154 
2380.000000	91.080467 
2379.000000	91.179082 
2378.000000	91.264298 
2377.000000	91.325866 
2376.000000	91.365049 
2375.000000	91.385588 
2374.000000	91.387956 
2373.000000	91.377453 
2372.000000	91.367055 
2371.000000	91.366302 
2370.000000	91.376621 
2369.000000	91.399904 
2368.000000	91.438329 
2367.000000	91.482999 
2366.000000	91.519980 
2365.000000	91.548549 
2364.000000	91.576811 
2363.000000	91.604488 
2362.000000	91.615154 
2361.000000	91.600015 
2360.000000	91.578448 
2359.000000	91.568184 
2358.000000	91.582119 
2357.000000	91.632814 
2356.000000	91.713940 
2355.000000	91.802199 
2354.000000	91.875696 
2353.000000	91.931901 
2352.000000	91.955000 
2351.000000	91.925261 
2350.000000	91.870396 
2349.000000	91.841332 
2348.000000	91.869571 
2347.000000	91.924360 
2346.000000	91.951662 
2345.000000	91.940449 
2344.000000	91.921158 
2343.000000	91.934726 
2342.000000	91.983346 
2341.000000	92.053170 
2340.000000	92.124195 
2339.000000	92.175330 
2338.000000	92.199936 
2337.000000	92.207167 
2336.000000	92.205190 
2335.000000	92.191290 
2334.000000	92.160263 
2333.000000	92.121811 
2332.000000	92.089411 
2331.000000	92.069013 
2330.000000	92.065811 
2329.000000	92.065143 
2328.000000	92.053727 
2327.000000	92.015492 
2326.000000	91.956603 
2325.000000	91.905488 
2324.000000	91.885193 
2323.000000	91.908774 
2322.000000	91.961373 
2321.000000	92.027152 
2320.000000	92.086513 
2319.000000	92.125439 
2318.000000	92.142535 
2317.000000	92.151112 
2316.000000	92.165304 
2315.000000	92.178622 
2314.000000	92.176061 
2313.000000	92.151165 
2312.000000	92.113966 
2311.000000	92.073045 
2310.000000	92.033745 
2309.000000	92.003072 
2308.000000	91.989407 
2307.000000	91.991020 
2306.000000	91.994489 
2305.000000	91.986593 
2304.000000	91.959939 
2303.000000	91.914922 
2302.000000	91.861214 
2301.000000	91.817466 
2300.000000	91.798696 
2299.000000	91.802175 
2298.000000	91.816410 
2297.000000	91.837964 
2296.000000	91.873749 
2295.000000	91.924849 
2294.000000	91.983928 
2293.000000	92.046089 
2292.000000	92.112133 
2291.000000	92.179990 
2290.000000	92.243033 
2289.000000	92.300806 
2288.000000	92.359426 
2287.000000	92.421306 
2286.000000	92.482177 
2285.000000	92.541905 
2284.000000	92.605492 
2283.000000	92.671181 
2282.000000	92.726614 
2281.000000	92.762544 
2280.000000	92.780425 
2279.000000	92.784091 
2278.000000	92.774452 
2277.000000	92.757130 
2276.000000	92.742935 
2275.000000	92.733341 
2274.000000	92.716313 
2273.000000	92.681014 
2272.000000	92.629033 
2271.000000	92.566908 
2270.000000	92.498781 
2269.000000	92.431805 
2268.000000	92.378673 
2267.000000	92.349207 
2266.000000	92.345693 
2265.000000	92.367908 
2264.000000	92.415303 
2263.000000	92.482390 
2262.000000	92.561606 
2261.000000	92.651574 
2260.000000	92.753621 
2259.000000	92.862131 
2258.000000	92.967730 
2257.000000	93.071227 
2256.000000	93.181830 
2255.000000	93.301104 
2254.000000	93.420169 
2253.000000	93.533085 
2252.000000	93.640819 
2251.000000	93.740290 
2250.000000	93.823729 
2249.000000	93.891086 
2248.000000	93.951051 
2247.000000	94.007418 
2246.000000	94.056526 
2245.000000	94.099285 
2244.000000	94.142978 
2243.000000	94.189514 
2242.000000	94.233786 
2241.000000	94.274105 
2240.000000	94.312171 
2239.000000	94.344501 
2238.000000	94.367687 
2237.000000	94.389659 
2236.000000	94.419732 
2235.000000	94.450328 
2234.000000	94.466541 
2233.000000	94.471525 
2232.000000	94.482640 
2231.000000	94.504398 
2230.000000	94.526964 
2229.000000	94.550034 
2228.000000	94.583710 
2227.000000	94.624003 
2226.000000	94.652546 
2225.000000	94.665458 
2224.000000	94.679552 
2223.000000	94.704755 
2222.000000	94.732823 
2221.000000	94.758337 
2220.000000	94.787742 
2219.000000	94.821285 
2218.000000	94.847786 
2217.000000	94.863858 
2216.000000	94.878268 
2215.000000	94.892854 
2214.000000	94.900107 
2213.000000	94.902424 
2212.000000	94.910399 
2211.000000	94.919474 
2210.000000	94.913764 
2209.000000	94.896742 
2208.000000	94.890643 
2207.000000	94.899604 
2206.000000	94.901468 
2205.000000	94.884169 
2204.000000	94.862765 
2203.000000	94.850585 
2202.000000	94.840035 
2201.000000	94.822821 
2200.000000	94.804306 
2199.000000	94.787036 
2198.000000	94.763482 
2197.000000	94.735525 
2196.000000	94.718355 
2195.000000	94.714986 
2194.000000	94.707893 
2193.000000	94.683968 
2192.000000	94.647718 
2191.000000	94.605175 
2190.000000	94.557592 
2189.000000	94.514290 
2188.000000	94.485988 
2187.000000	94.462467 
2186.000000	94.425067 
2185.000000	94.384400 
2184.000000	94.372928 
2183.000000	94.392420 
2182.000000	94.401526 
2181.000000	94.366122 
2180.000000	94.292344 
2179.000000	94.202712 
2178.000000	94.113570 
2177.000000	94.043678 
2176.000000	94.008224 
2175.000000	93.991099 
2174.000000	93.953003 
2173.000000	93.877842 
2172.000000	93.785280 
2171.000000	93.693638 
2170.000000	93.601118 
2169.000000	93.508914 
2168.000000	93.430969 
2167.000000	93.370953 
2166.000000	93.315000 
2165.000000	93.252839 
2164.000000	93.182577 
2163.000000	93.100486 
2162.000000	93.023156 
2161.000000	93.013106 
2160.000000	93.123843 
2159.000000	93.306457 
2158.000000	93.436024 
2157.000000	93.446404 
2156.000000	93.371175 
2155.000000	93.256012 
2154.000000	93.107002 
2153.000000	92.926198 
2152.000000	92.735312 
2151.000000	92.547867 
2150.000000	92.357028 
2149.000000	92.163128 
2148.000000	91.981124 
2147.000000	91.813103 
2146.000000	91.642430 
2145.000000	91.459666 
2144.000000	91.267775 
2143.000000	91.062357 
2142.000000	90.835884 
2141.000000	90.600819 
2140.000000	90.379321 
2139.000000	90.171697 
2138.000000	89.964029 
2137.000000	89.763348 
2136.000000	89.591956 
2135.000000	89.445689 
2134.000000	89.290819 
2133.000000	89.108946 
2132.000000	88.918441 
2131.000000	88.746680 
2130.000000	88.604065 
2129.000000	88.488380 
2128.000000	88.394573 
2127.000000	88.315771 
2126.000000	88.248263 
2125.000000	88.197133 
2124.000000	88.166570 
2123.000000	88.148334 
2122.000000	88.132710 
2121.000000	88.125970 
2120.000000	88.141877 
2119.000000	88.180075 
2118.000000	88.228596 
2117.000000	88.283648 
2116.000000	88.350381 
2115.000000	88.427569 
2114.000000	88.509171 
2113.000000	88.598889 
2112.000000	88.705324 
2111.000000	88.824368 
2110.000000	88.944755 
2109.000000	89.069307 
2108.000000	89.210070 
2107.000000	89.362329 
2106.000000	89.505309 
2105.000000	89.631848 
2104.000000	89.756529 
2103.000000	89.889372 
2102.000000	90.021339 
2101.000000	90.142670 
2100.000000	90.258300 
2099.000000	90.378468 
2098.000000	90.509083 
2097.000000	90.654593 
2096.000000	90.813284 
2095.000000	90.966809 
2094.000000	91.092767 
2093.000000	91.192160 
2092.000000	91.287742 
2091.000000	91.393679 
2090.000000	91.505014 
2089.000000	91.617869 
2088.000000	91.738129 
2087.000000	91.864267 
2086.000000	91.982355 
2085.000000	92.087176 
2084.000000	92.190671 
2083.000000	92.300946 
2082.000000	92.410349 
2081.000000	92.513019 
2080.000000	92.616599 
2079.000000	92.726145 
2078.000000	92.832558 
2077.000000	92.927953 
2076.000000	93.018643 
2075.000000	93.113367 
2074.000000	93.210631 
2073.000000	93.304708 
2072.000000	93.391198 
2071.000000	93.462636 
2070.000000	93.514398 
2069.000000	93.558561 
2068.000000	93.614326 
2067.000000	93.680868 
2066.000000	93.737430 
2065.000000	93.772760 
2064.000000	93.795635 
2063.000000	93.815428 
2062.000000	93.835004 
2061.000000	93.861983 
2060.000000	93.899354 
2059.000000	93.924220 
2058.000000	93.906334 
2057.000000	93.852004 
2056.000000	93.798153 
2055.000000	93.756917 
2054.000000	93.700657 
2053.000000	93.614020 
2052.000000	93.527683 
2051.000000	93.485069 
2050.000000	93.501835 
2049.000000	93.568346 
2048.000000	93.666038 
2047.000000	93.768242 
2046.000000	93.849398 
2045.000000	93.909249 
2044.000000	93.968490 
2043.000000	94.033768 
2042.000000	94.091724 
2041.000000	94.139781 
2040.000000	94.190265 
2039.000000	94.241456 
2038.000000	94.282785 
2037.000000	94.332249 
2036.000000	94.423377 
2035.000000	94.546032 
2034.000000	94.648722 
2033.000000	94.712862 
2032.000000	94.772201 
2031.000000	94.843219 
2030.000000	94.894666 
2029.000000	94.908656 
2028.000000	94.916432 
2027.000000	94.947799 
2026.000000	94.993571 
2025.000000	95.042161 
2024.000000	95.105829 
2023.000000	95.185088 
2022.000000	95.250201 
2021.000000	95.281761 
2020.000000	95.291536 
2019.000000	95.285909 
2018.000000	95.252595 
2017.000000	95.202991 
2016.000000	95.180158 
2015.000000	95.201527 
2014.000000	95.236626 
2013.000000	95.257397 
2012.000000	95.269614 
2011.000000	95.283919 
2010.000000	95.300613 
2009.000000	95.337492 
2008.000000	95.423225 
2007.000000	95.542297 
2006.000000	95.632678 
2005.000000	95.659734 
2004.000000	95.649918 
2003.000000	95.637755 
2002.000000	95.628432 
2001.000000	95.624240 
2000.000000	95.641035 
1999.000000	95.678314 
1998.000000	95.709432 
1997.000000	95.720568 
1996.000000	95.725572 
1995.000000	95.729859 
1994.000000	95.718208 
1993.000000	95.694764 
1992.000000	95.694307 
1991.000000	95.731215 
1990.000000	95.776926 
1989.000000	95.807535 
1988.000000	95.831489 
1987.000000	95.854379 
1986.000000	95.860023 
1985.000000	95.846471 
1984.000000	95.838476 
1983.000000	95.841088 
1982.000000	95.824307 
1981.000000	95.780426 
1980.000000	95.758155 
1979.000000	95.806302 
1978.000000	95.913837 
1977.000000	96.037340 
1976.000000	96.151520 
1975.000000	96.239749 
1974.000000	96.278824 
1973.000000	96.272274 
1972.000000	96.260785 
1971.000000	96.269819 
1970.000000	96.281392 
1969.000000	96.276764 
1968.000000	96.267456 
1967.000000	96.262704 
1966.000000	96.245982 
1965.000000	96.208906 
1964.000000	96.172889 
1963.000000	96.159255 
1962.000000	96.169927 
1961.000000	96.204445 
1960.000000	96.258750 
1959.000000	96.300618 
1958.000000	96.290087 
1957.000000	96.235741 
1956.000000	96.190151 
1955.000000	96.181235 
1954.000000	96.188100 
1953.000000	96.192981 
1952.000000	96.209855 
1951.000000	96.245444 
1950.000000	96.276481 
1949.000000	96.287100 
1948.000000	96.294221 
1947.000000	96.314451 
1946.000000	96.337897 
1945.000000	96.355250 
1944.000000	96.380777 
1943.000000	96.426953 
1942.000000	96.481492 
1941.000000	96.530512 
1940.000000	96.578815 
1939.000000	96.629197 
1938.000000	96.668073 
1937.000000	96.686266 
1936.000000	96.691799 
1935.000000	96.691658 
1934.000000	96.684823 
1933.000000	96.683122 
1932.000000	96.707732 
1931.000000	96.754736 
1930.000000	96.792756 
1929.000000	96.802839 
1928.000000	96.798815 
1927.000000	96.795764 
1926.000000	96.788810 
1925.000000	96.774491 
1924.000000	96.763942 
1923.000000	96.763222 
1922.000000	96.761157 
1921.000000	96.751861 
1920.000000	96.748553 
1919.000000	96.763316 
1918.000000	96.792408 
1917.000000	96.828855 
1916.000000	96.869884 
1915.000000	96.906205 
1914.000000	96.923669 
1913.000000	96.924029 
1912.000000	96.924767 
1911.000000	96.933032 
1910.000000	96.939635 
1909.000000	96.942053 
1908.000000	96.951365 
1907.000000	96.967372 
1906.000000	96.976076 
1905.000000	96.977661 
1904.000000	96.988561 
1903.000000	97.013623 
1902.000000	97.037922 
1901.000000	97.052195 
1900.000000	97.063917 
1899.000000	97.073950 
1898.000000	97.069573 
1897.000000	97.051682 
1896.000000	97.042260 
1895.000000	97.054364 
1894.000000	97.075689 
1893.000000	97.092861 
1892.000000	97.109833 
1891.000000	97.132356 
1890.000000	97.155574 
1889.000000	97.177259 
1888.000000	97.202864 
1887.000000	97.229792 
1886.000000	97.247519 
1885.000000	97.258326 
1884.000000	97.276385 
1883.000000	97.301906 
1882.000000	97.318393 
1881.000000	97.320898 
1880.000000	97.324976 
1879.000000	97.338035 
1878.000000	97.346420 
1877.000000	97.342576 
1876.000000	97.337483 
1875.000000	97.335803 
1874.000000	97.325126 
1873.000000	97.298809 
1872.000000	97.265485 
1871.000000	97.227860 
1870.000000	97.176857 
1869.000000	97.122262 
1868.000000	97.098120 
1867.000000	97.115904 
1866.000000	97.148447 
1865.000000	97.169395 
1864.000000	97.176034 
1863.000000	97.171753 
1862.000000	97.152879 
1861.000000	97.123171 
1860.000000	97.099678 
1859.000000	97.090855 
1858.000000	97.086987 
1857.000000	97.081265 
1856.000000	97.080401 
1855.000000	97.085665 
1854.000000	97.085303 
1853.000000	97.072283 
1852.000000	97.056388 
1851.000000	97.046718 
1850.000000	97.037241 
1849.000000	97.024181 
1848.000000	97.015269 
1847.000000	97.014302 
1846.000000	97.013426 
1845.000000	97.012999 
1844.000000	97.032099 
1843.000000	97.078856 
1842.000000	97.133061 
1841.000000	97.177022 
1840.000000	97.214721 
1839.000000	97.250940 
1838.000000	97.280124 
1837.000000	97.301768 
1836.000000	97.325273 
1835.000000	97.351470 
1834.000000	97.366532 
1833.000000	97.363302 
1832.000000	97.354161 
1831.000000	97.350458 
1830.000000	97.348619 
1829.000000	97.349470 
1828.000000	97.361661 
1827.000000	97.381000 
1826.000000	97.390058 
1825.000000	97.387595 
1824.000000	97.395634 
1823.000000	97.422600 
1822.000000	97.449845 
1821.000000	97.464360 
1820.000000	97.476815 
1819.000000	97.496839 
1818.000000	97.515714 
1817.000000	97.523583 
1816.000000	97.519801 
1815.000000	97.500780 
1814.000000	97.456659 
1813.000000	97.394285 
1812.000000	97.342070 
1811.000000	97.316857 
1810.000000	97.309052 
1809.000000	97.306164 
1808.000000	97.308542 
1807.000000	97.313680 
1806.000000	97.306772 
1805.000000	97.279585 
1804.000000	97.242389 
1803.000000	97.211092 
1802.000000	97.191008 
1801.000000	97.184295 
1800.000000	97.194643 
1799.000000	97.212106 
1798.000000	97.218180 
1797.000000	97.208520 
1796.000000	97.194485 
1795.000000	97.180465 
1794.000000	97.154767 
1793.000000	97.117058 
1792.000000	97.098144 
1791.000000	97.120060 
1790.000000	97.162437 
1789.000000	97.193615 
1788.000000	97.203345 
1787.000000	97.195244 
1786.000000	97.174756 
1785.000000	97.152008 
1784.000000	97.137079 
1783.000000	97.127234 
1782.000000	97.106823 
1781.000000	97.075400 
1780.000000	97.056642 
1779.000000	97.057255 
1778.000000	97.050037 
1777.000000	97.008478 
1776.000000	96.940228 
1775.000000	96.869293 
1774.000000	96.799396 
1773.000000	96.719736 
1772.000000	96.642795 
1771.000000	96.587662 
1770.000000	96.543192 
1769.000000	96.495567 
1768.000000	96.451932 
1767.000000	96.417223 
1766.000000	96.374086 
1765.000000	96.304792 
1764.000000	96.213837 
1763.000000	96.115663 
1762.000000	96.017850 
1761.000000	95.929246 
1760.000000	95.859289 
1759.000000	95.800829 
1758.000000	95.733383 
1757.000000	95.645857 
1756.000000	95.553136 
1755.000000	95.462954 
1754.000000	95.355420 
1753.000000	95.216483 
1752.000000	95.067845 
1751.000000	94.944380 
1750.000000	94.853652 
1749.000000	94.782794 
1748.000000	94.727465 
1747.000000	94.683531 
1746.000000	94.628739 
1745.000000	94.552617 
1744.000000	94.477651 
1743.000000	94.425051 
1742.000000	94.383796 
1741.000000	94.334050 
1740.000000	94.280682 
1739.000000	94.241994 
1738.000000	94.216894 
1737.000000	94.197472 
1736.000000	94.201418 
1735.000000	94.253070 
1734.000000	94.343964 
1733.000000	94.443129 
1732.000000	94.531185 
1731.000000	94.600023 
1730.000000	94.645246 
1729.000000	94.674481 
1728.000000	94.706751 
1727.000000	94.744613 
1726.000000	94.767780 
1725.000000	94.771431 
1724.000000	94.780271 
1723.000000	94.807284 
1722.000000	94.831879 
1721.000000	94.830752 
1720.000000	94.809994 
1719.000000	94.789454 
1718.000000	94.786738 
1717.000000	94.829117 
1716.000000	94.933737 
1715.000000	95.078462 
1714.000000	95.223924 
1713.000000	95.349935 
1712.000000	95.460705 
1711.000000	95.560392 
1710.000000	95.637971 
1709.000000	95.686361 
1708.000000	95.721398 
1707.000000	95.757423 
1706.000000	95.782371 
1705.000000	95.785881 
1704.000000	95.778251 
1703.000000	95.770419 
1702.000000	95.753202 
1701.000000	95.705069 
1700.000000	95.650706 
1699.000000	95.632502 
1698.000000	95.631740 
1697.000000	95.623055 
1696.000000	95.617523 
1695.000000	95.629802 
1694.000000	95.642745 
1693.000000	95.625466 
1692.000000	95.573020 
1691.000000	95.490731 
1690.000000	95.379247 
1689.000000	95.246761 
1688.000000	95.117885 
1687.000000	95.000896 
1686.000000	94.867184 
1685.000000	94.684738 
1684.000000	94.506673 
1683.000000	94.415987 
1682.000000	94.373250 
1681.000000	94.305575 
1680.000000	94.212086 
1679.000000	94.114040 
1678.000000	93.999967 
1677.000000	93.834644 
1676.000000	93.612870 
1675.000000	93.371672 
1674.000000	93.133693 
1673.000000	92.877740 
1672.000000	92.579114 
1671.000000	92.218004 
1670.000000	91.774642 
1669.000000	91.270265 
1668.000000	90.776899 
1667.000000	90.330007 
1666.000000	89.883605 
1665.000000	89.370054 
1664.000000	88.764791 
1663.000000	88.111849 
1662.000000	87.481462 
1661.000000	86.901934 
1660.000000	86.369776 
1659.000000	85.877123 
1658.000000	85.405236 
1657.000000	84.939089 
1656.000000	84.488112 
1655.000000	84.063243 
1654.000000	83.607435 
1653.000000	83.119241 
1652.000000	82.763241 
1651.000000	82.575509 
1650.000000	82.409973 
1649.000000	82.145422 
1648.000000	81.739103 
1647.000000	81.249563 
1646.000000	80.756277 
1645.000000	80.275749 
1644.000000	79.791112 
1643.000000	79.292814 
1642.000000	78.756317 
1641.000000	78.164042 
1640.000000	77.558016 
1639.000000	76.993944 
1638.000000	76.447137 
1637.000000	75.812097 
1636.000000	75.052663 
1635.000000	74.293469 
1634.000000	73.617137 
1633.000000	72.954327 
1632.000000	72.235767 
1631.000000	71.449516 
1630.000000	70.578888 
1629.000000	69.602721 
1628.000000	68.576404 
1627.000000	67.618705 
1626.000000	66.764885 
1625.000000	65.939200 
1624.000000	65.099002 
1623.000000	64.329681 
1622.000000	63.732503 
1621.000000	63.297510 
1620.000000	62.977657 
1619.000000	62.774766 
1618.000000	62.711533 
1617.000000	62.793714 
1616.000000	63.025357 
1615.000000	63.402431 
1614.000000	63.880039 
1613.000000	64.402402 
1612.000000	64.935025 
1611.000000	65.435402 
1610.000000	65.811900 
1609.000000	65.954379 
1608.000000	65.802245 
1607.000000	65.345557 
1606.000000	64.573166 
1605.000000	63.462887 
1604.000000	62.023237 
1603.000000	60.301976 
1602.000000	58.343798 
1601.000000	56.170933 
1600.000000	53.821566 
1599.000000	51.363548 
1598.000000	48.840241 
1597.000000	46.252735 
1596.000000	43.637689 
1595.000000	41.114463 
1594.000000	38.799087 
1593.000000	36.723837 
1592.000000	34.899047 
1591.000000	33.375583 
1590.000000	32.173735 
1589.000000	31.228822 
1588.000000	30.481424 
1587.000000	29.945049 
1586.000000	29.622040 
1585.000000	29.440856 
1584.000000	29.347890 
1583.000000	29.374743 
1582.000000	29.541506 
1581.000000	29.778777 
1580.000000	30.020260 
1579.000000	30.295437 
1578.000000	30.672822 
1577.000000	31.162709 
1576.000000	31.711370 
1575.000000	32.260640 
1574.000000	32.760609 
1573.000000	33.176993 
1572.000000	33.538544 
1571.000000	33.940857 
1570.000000	34.440054 
1569.000000	34.955212 
1568.000000	35.400609 
1567.000000	35.821739 
1566.000000	36.296146 
1565.000000	36.814782 
1564.000000	37.321965 
1563.000000	37.798358 
1562.000000	38.271843 
1561.000000	38.786190 
1560.000000	39.443299 
1559.000000	40.334178 
1558.000000	41.287949 
1557.000000	42.083579 
1556.000000	42.769697 
1555.000000	43.496106 
1554.000000	44.298488 
1553.000000	45.089465 
1552.000000	45.812006 
1551.000000	46.519289 
1550.000000	47.257453 
1549.000000	47.975678 
1548.000000	48.603103 
1547.000000	49.146299 
1546.000000	49.645364 
1545.000000	50.101931 
1544.000000	50.495278 
1543.000000	50.828361 
1542.000000	51.108113 
1541.000000	51.294675 
1540.000000	51.339248 
1539.000000	51.281254 
1538.000000	51.190603 
1537.000000	51.060438 
1536.000000	50.837850 
1535.000000	50.476054 
1534.000000	49.978869 
1533.000000	49.451730 
1532.000000	49.023245 
1531.000000	48.728207 
1530.000000	48.542556 
1529.000000	48.449315 
1528.000000	48.454407 
1527.000000	48.584937 
1526.000000	48.850269 
1525.000000	49.201731 
1524.000000	49.572941 
1523.000000	49.951549 
1522.000000	50.371501 
1521.000000	50.832531 
1520.000000	51.290995 
1519.000000	51.745346 
1518.000000	52.246120 
1517.000000	52.824730 
1516.000000	53.458056 
1515.000000	54.113778 
1514.000000	54.789667 
1513.000000	55.481826 
1512.000000	56.162513 
1511.000000	56.809822 
1510.000000	57.430620 
1509.000000	58.050089 
1508.000000	58.715382 
1507.000000	59.491186 
1506.000000	60.348486 
1505.000000	61.149381 
1504.000000	61.832023 
1503.000000	62.449258 
1502.000000	63.063683 
1501.000000	63.685556 
1500.000000	64.290313 
1499.000000	64.886728 
1498.000000	65.521254 
1497.000000	66.208380 
1496.000000	66.910335 
1495.000000	67.602292 
1494.000000	68.282788 
1493.000000	68.932959 
1492.000000	69.540766 
1491.000000	70.145788 
1490.000000	70.799055 
1489.000000	71.479342 
1488.000000	72.125478 
1487.000000	72.718653 
1486.000000	73.255960 
1485.000000	73.702169 
1484.000000	74.040642 
1483.000000	74.320415 
1482.000000	74.606813 
1481.000000	74.915223 
1480.000000	75.220386 
1479.000000	75.504693 
1478.000000	75.748495 
1477.000000	75.912456 
1476.000000	75.977969 
1475.000000	75.971806 
1474.000000	75.900756 
1473.000000	75.726796 
1472.000000	75.474604 
1471.000000	75.234863 
1470.000000	75.019322 
1469.000000	74.756147 
1468.000000	74.400381 
1467.000000	73.955706 
1466.000000	73.409379 
1465.000000	72.721784 
1464.000000	71.917897 
1463.000000	71.063740 
1462.000000	70.134284 
1461.000000	69.028075 
1460.000000	67.632481 
1459.000000	65.790141 
1458.000000	63.259329 
1457.000000	60.177911 
1456.000000	57.408839 
1455.000000	55.605970 
1454.000000	54.664290 
1453.000000	54.315543 
1452.000000	54.438019 
1451.000000	54.964645 
1450.000000	55.836027 
1449.000000	57.060217 
1448.000000	58.672029 
1447.000000	60.597871 
1446.000000	62.680535 
1445.000000	64.795926 
1444.000000	66.862613 
1443.000000	68.798710 
1442.000000	70.532781 
1441.000000	72.016005 
1440.000000	73.232381 
1439.000000	74.229814 
1438.000000	75.118949 
1437.000000	75.974980 
1436.000000	76.747861 
1435.000000	77.368743 
1434.000000	77.860929 
1433.000000	78.262467 
1432.000000	78.561144 
1431.000000	78.743124 
1430.000000	78.829910 
1429.000000	78.833610 
1428.000000	78.727764 
1427.000000	78.492553 
1426.000000	78.117202 
1425.000000	77.562803 
1424.000000	76.814179 
1423.000000	75.932426 
1422.000000	74.933434 
1421.000000	73.651347 
1420.000000	71.832343 
1419.000000	69.459268 
1418.000000	66.818279 
1417.000000	64.077342 
1416.000000	61.162981 
1415.000000	58.042158 
1414.000000	54.819950 
1413.000000	51.686070 
1412.000000	48.923838 
1411.000000	46.870789 
1410.000000	45.725856 
1409.000000	45.476510 
1408.000000	46.046431 
1407.000000	47.364374 
1406.000000	49.288533 
1405.000000	51.598282 
1404.000000	54.071198 
1403.000000	56.530701 
1402.000000	58.888890 
1401.000000	61.175543 
1400.000000	63.456573 
1399.000000	65.679916 
1398.000000	67.691615 
1397.000000	69.435963 
1396.000000	71.004639 
1395.000000	72.482996 
1394.000000	73.841318 
1393.000000	75.002760 
1392.000000	75.950572 
1391.000000	76.722041 
1390.000000	77.355697 
1389.000000	77.864475 
1388.000000	78.231195 
1387.000000	78.415217 
1386.000000	78.356269 
1385.000000	77.987790 
1384.000000	77.311681 
1383.000000	76.509034 
1382.000000	75.928422 
1381.000000	75.869183 
1380.000000	76.369622 
1379.000000	77.216492 
1378.000000	78.120630 
1377.000000	78.890289 
1376.000000	79.479924 
1375.000000	79.930466 
1374.000000	80.288894 
1373.000000	80.557016 
1372.000000	80.692110 
1371.000000	80.638984 
1370.000000	80.340224 
1369.000000	79.725483 
1368.000000	78.731935 
1367.000000	77.343611 
1366.000000	75.569557 
1365.000000	73.368589 
1364.000000	70.650854 
1363.000000	67.415723 
1362.000000	63.858109 
1361.000000	60.243978 
1360.000000	56.734557 
1359.000000	53.412396 
1358.000000	50.382123 
1357.000000	47.778592 
1356.000000	45.732116 
1355.000000	44.356473 
1354.000000	43.730983 
1353.000000	43.876484 
1352.000000	44.769528 
1351.000000	46.361613 
1350.000000	48.546641 
1349.000000	51.129323 
1348.000000	53.874642 
1347.000000	56.592540 
1346.000000	59.167935 
1345.000000	61.538725 
1344.000000	63.681666 
1343.000000	65.616927 
1342.000000	67.399661 
1341.000000	69.088217 
1340.000000	70.710076 
1339.000000	72.251767 
1338.000000	73.682201 
1337.000000	74.983315 
1336.000000	76.157307 
1335.000000	77.216441 
1334.000000	78.173078 
1333.000000	79.034119 
1332.000000	79.801466 
1331.000000	80.478569 
1330.000000	81.072992 
1329.000000	81.588235 
1328.000000	82.016910 
1327.000000	82.347113 
1326.000000	82.570726 
1325.000000	82.679162 
1324.000000	82.655877 
1323.000000	82.476492 
1322.000000	82.107638 
1321.000000	81.497036 
1320.000000	80.571159 
1319.000000	79.252119 
1318.000000	77.474491 
1317.000000	75.184437 
1316.000000	72.339711 
1315.000000	68.929420 
1314.000000	65.001103 
1313.000000	60.687204 
1312.000000	56.230323 
1311.000000	51.976207 
1310.000000	48.316215 
1309.000000	45.621797 
1308.000000	44.183758 
1307.000000	44.112373 
1306.000000	45.253892 
1305.000000	47.253329 
1304.000000	49.727225 
1303.000000	52.378919 
1302.000000	55.010478 
1301.000000	57.507652 
1300.000000	59.832660 
1299.000000	61.998264 
1298.000000	64.024934 
1297.000000	65.919466 
1296.000000	67.683794 
1295.000000	69.323696 
1294.000000	70.842179 
1293.000000	72.235321 
1292.000000	73.502130 
1291.000000	74.653564 
1290.000000	75.706215 
1289.000000	76.670847 
1288.000000	77.553102 
1287.000000	78.361852 
1286.000000	79.107810 
1285.000000	79.794474 
1284.000000	80.419785 
1283.000000	80.988290 
1282.000000	81.513251 
1281.000000	82.004367 
1280.000000	82.461897 
1279.000000	82.885564 
1278.000000	83.279938 
1277.000000	83.647790 
1276.000000	83.987428 
1275.000000	84.300657 
1274.000000	84.594336 
1273.000000	84.870453 
1272.000000	85.124279 
1271.000000	85.356086 
1270.000000	85.573948 
1269.000000	85.780377 
1268.000000	85.967975 
1267.000000	86.133611 
1266.000000	86.284700 
1265.000000	86.425264 
1264.000000	86.547834 
1263.000000	86.646187 
1262.000000	86.724352 
1261.000000	86.785442 
1260.000000	86.822747 
1259.000000	86.828709 
1258.000000	86.799794 
1257.000000	86.724005 
1256.000000	86.574217 
1255.000000	86.320640 
1254.000000	85.939172 
1253.000000	85.403915 
1252.000000	84.690741 
1251.000000	83.805231 
1250.000000	82.802931 
1249.000000	81.778640 
1248.000000	80.840575 
1247.000000	80.075615 
1246.000000	79.499401 
1245.000000	79.029992 
1244.000000	78.533629 
1243.000000	77.915141 
1242.000000	77.173791 
1241.000000	76.394967 
1240.000000	75.715252 
1239.000000	75.283870 
1238.000000	75.210662 
1237.000000	75.523215 
1236.000000	76.170577 
1235.000000	77.058401 
1234.000000	78.077947 
1233.000000	79.124638 
1232.000000	80.117490 
1231.000000	81.014431 
1230.000000	81.809181 
1229.000000	82.512169 
1228.000000	83.136968 
1227.000000	83.701484 
1226.000000	84.227914 
1225.000000	84.731090 
1224.000000	85.208306 
1223.000000	85.640725 
1222.000000	85.999767 
1221.000000	86.258112 
1220.000000	86.414244 
1219.000000	86.515035 
1218.000000	86.638664 
1217.000000	86.840583 
1216.000000	87.119504 
1215.000000	87.435496 
1214.000000	87.746673 
1213.000000	88.025071 
1212.000000	88.256483 
1211.000000	88.442262 
1210.000000	88.596198 
1209.000000	88.730531 
1208.000000	88.850702 
1207.000000	88.966265 
1206.000000	89.093105 
1205.000000	89.237448 
1204.000000	89.389922 
1203.000000	89.542613 
1202.000000	89.699889 
1201.000000	89.865520 
1200.000000	90.032639 
1199.000000	90.195475 
1198.000000	90.358510 
1197.000000	90.524595 
1196.000000	90.685726 
1195.000000	90.835139 
1194.000000	90.977315 
1193.000000	91.116642 
1192.000000	91.247339 
1191.000000	91.363983 
1190.000000	91.471089 
1189.000000	91.573143 
1188.000000	91.666133 
1187.000000	91.747404 
1186.000000	91.822012 
1185.000000	91.890910 
1184.000000	91.945655 
1183.000000	91.983829 
1182.000000	92.016472 
1181.000000	92.050569 
1180.000000	92.077209 
1179.000000	92.086534 
1178.000000	92.080254 
1177.000000	92.058859 
1176.000000	92.010308 
1175.000000	91.921992 
1174.000000	91.789423 
1173.000000	91.600373 
1172.000000	91.322947 
1171.000000	90.922639 
1170.000000	90.385744 
1169.000000	89.728201 
1168.000000	89.006049 
1167.000000	88.325710 
1166.000000	87.812016 
1165.000000	87.534883 
1164.000000	87.465180 
1163.000000	87.500270 
1162.000000	87.519886 
1161.000000	87.421433 
1160.000000	87.130683 
1159.000000	86.602715 
1158.000000	85.807641 
1157.000000	84.704461 
1156.000000	83.237735 
1155.000000	81.370383 
1154.000000	79.121370 
1153.000000	76.593377 
1152.000000	74.002992 
1151.000000	71.678533 
1150.000000	69.969577 
1149.000000	69.115606 
1148.000000	69.177636 
1147.000000	70.046799 
1146.000000	71.492399 
1145.000000	73.241952 
1144.000000	75.067884 
1143.000000	76.827826 
1142.000000	78.448276 
1141.000000	79.893459 
1140.000000	81.154951 
1139.000000	82.253709 
1138.000000	83.226538 
1137.000000	84.099051 
1136.000000	84.876119 
1135.000000	85.556951 
1134.000000	86.145060 
1133.000000	86.639007 
1132.000000	87.027923 
1131.000000	87.304874 
1130.000000	87.473104 
1129.000000	87.530592 
1128.000000	87.457602 
1127.000000	87.220600 
1126.000000	86.768153 
1125.000000	86.011262 
1124.000000	84.821285 
1123.000000	83.056331 
1122.000000	80.584229 
1121.000000	77.305805 
1120.000000	73.233147 
1119.000000	68.606104 
1118.000000	63.927350 
1117.000000	59.863335 
1116.000000	57.077944 
1115.000000	56.035725 
1114.000000	56.818331 
1113.000000	59.100275 
1112.000000	62.328090 
1111.000000	65.941568 
1110.000000	69.503073 
1109.000000	72.736127 
1108.000000	75.511416 
1107.000000	77.808378 
1106.000000	79.671941 
1105.000000	81.175952 
1104.000000	82.405100 
1103.000000	83.450849 
1102.000000	84.394636 
1101.000000	85.276527 
1100.000000	86.088752 
1099.000000	86.809592 
1098.000000	87.435417 
1097.000000	87.975561 
1096.000000	88.435524 
1095.000000	88.823021 
1094.000000	89.158530 
1093.000000	89.462462 
1092.000000	89.740193 
1091.000000	89.992691 
1090.000000	90.230865 
1089.000000	90.464839 
1088.000000	90.688420 
1087.000000	90.888297 
1086.000000	91.061902 
1085.000000	91.216114 
1084.000000	91.357252 
1083.000000	91.491910 
1082.000000	91.627510 
1081.000000	91.763039 
1080.000000	91.889729 
1079.000000	92.007594 
1078.000000	92.127708 
1077.000000	92.251142 
1076.000000	92.362374 
1075.000000	92.453307 
1074.000000	92.537090 
1073.000000	92.627181 
1072.000000	92.719535 
1071.000000	92.806637 
1070.000000	92.891789 
1069.000000	92.977108 
1068.000000	93.054078 
1067.000000	93.119289 
1066.000000	93.183871 
1065.000000	93.254290 
1064.000000	93.319202 
1063.000000	93.368266 
1062.000000	93.409071 
1061.000000	93.452803 
1060.000000	93.497625 
1059.000000	93.537831 
1058.000000	93.574343 
1057.000000	93.605060 
1056.000000	93.620735 
1055.000000	93.622018 
1054.000000	93.624646 
1053.000000	93.635430 
1052.000000	93.639261 
1051.000000	93.622962 
1050.000000	93.593825 
1049.000000	93.560137 
1048.000000	93.514857 
1047.000000	93.454215 
1046.000000	93.390629 
1045.000000	93.332916 
1044.000000	93.274001 
1043.000000	93.209883 
1042.000000	93.149619 
1041.000000	93.090650 
1040.000000	92.999154 
1039.000000	92.827163 
1038.000000	92.533127 
1037.000000	92.072201 
1036.000000	91.381534 
1035.000000	90.391670 
1034.000000	89.051165 
1033.000000	87.354303 
1032.000000	85.384979 
1031.000000	83.341780 
1030.000000	81.476524 
1029.000000	79.985577 
1028.000000	78.976451 
1027.000000	78.509063 
1026.000000	78.587068 
1025.000000	79.068587 
1024.000000	79.613565 
1023.000000	79.759195 
1022.000000	79.074904 
1021.000000	77.291311 
1020.000000	74.378986 
1019.000000	70.610559 
1018.000000	66.565440 
1017.000000	63.004650 
1016.000000	60.639530 
1015.000000	59.883651 
1014.000000	60.705855 
1013.000000	62.699814 
1012.000000	65.323696 
1011.000000	68.118198 
1010.000000	70.793783 
1009.000000	73.216428 
1008.000000	75.352597 
1007.000000	77.214043 
1006.000000	78.823419 
1005.000000	80.202719 
1004.000000	81.374963 
1003.000000	82.367984 
1002.000000	83.211722 
1001.000000	83.929753 
1000.000000	84.537161 
999.000000	 85.049727 
998.000000	 85.490283 
997.000000	 85.880946 
996.000000	 86.232714 
995.000000	 86.546810 
994.000000	 86.822272 
993.000000	 87.058855 
992.000000	 87.257551 
991.000000	 87.422962 
990.000000	 87.562048 
989.000000	 87.678881 
988.000000	 87.775826 
987.000000	 87.860693 
986.000000	 87.945010 
985.000000	 88.033190 
984.000000	 88.121074 
983.000000	 88.206528 
982.000000	 88.292511 
981.000000	 88.378117 
980.000000	 88.457107 
979.000000	 88.528806 
978.000000	 88.600843 
977.000000	 88.677924 
976.000000	 88.757882 
975.000000	 88.842003 
974.000000	 88.938051 
973.000000	 89.048268 
972.000000	 89.164720 
971.000000	 89.281170 
970.000000	 89.399364 
969.000000	 89.519255 
968.000000	 89.634777 
967.000000	 89.745397 
966.000000	 89.860136 
965.000000	 89.982499 
964.000000	 90.102387 
963.000000	 90.211649 
962.000000	 90.317796 
961.000000	 90.432624 
960.000000	 90.555225 
959.000000	 90.675169 
958.000000	 90.785565 
957.000000	 90.885046 
956.000000	 90.973552 
955.000000	 91.053682 
954.000000	 91.130037 
953.000000	 91.201712 
952.000000	 91.263188 
951.000000	 91.317450 
950.000000	 91.377801 
949.000000	 91.449660 
948.000000	 91.520883 
947.000000	 91.578062 
946.000000	 91.622484 
945.000000	 91.661591 
944.000000	 91.695054 
943.000000	 91.719478 
942.000000	 91.737963 
941.000000	 91.754553 
940.000000	 91.766030 
939.000000	 91.767620 
938.000000	 91.759685 
937.000000	 91.741354 
936.000000	 91.705450 
935.000000	 91.646268 
934.000000	 91.562435 
933.000000	 91.443883 
932.000000	 91.265631 
931.000000	 91.002027 
930.000000	 90.634514 
929.000000	 90.133569 
928.000000	 89.445427 
927.000000	 88.515942 
926.000000	 87.328749 
925.000000	 85.916073 
924.000000	 84.346013 
923.000000	 82.718549 
922.000000	 81.178749 
921.000000	 79.929566 
920.000000	 79.212563 
919.000000	 79.224675 
918.000000	 80.001684 
917.000000	 81.374859 
916.000000	 83.054591 
915.000000	 84.764722 
914.000000	 86.322591 
913.000000	 87.639641 
912.000000	 88.691334 
911.000000	 89.500187 
910.000000	 90.121827 
909.000000	 90.614789 
908.000000	 91.015786 
907.000000	 91.344194 
906.000000	 91.615795 
905.000000	 91.841524 
904.000000	 92.025064 
903.000000	 92.173879 
902.000000	 92.303952 
901.000000	 92.425941 
900.000000	 92.538522 
899.000000	 92.642940 
898.000000	 92.749620 
897.000000	 92.860663 
896.000000	 92.961598 
895.000000	 93.042865 
894.000000	 93.115406 
893.000000	 93.191944 
892.000000	 93.266731 
891.000000	 93.328386 
890.000000	 93.380437 
889.000000	 93.434214 
888.000000	 93.491891 
887.000000	 93.550136 
886.000000	 93.609820 
885.000000	 93.668639 
884.000000	 93.714631 
883.000000	 93.740627 
882.000000	 93.755649 
881.000000	 93.770201 
880.000000	 93.781905 
879.000000	 93.786973 
878.000000	 93.790677 
877.000000	 93.792474 
876.000000	 93.777008 
875.000000	 93.736503 
874.000000	 93.686446 
873.000000	 93.641351 
872.000000	 93.589891 
871.000000	 93.511243 
870.000000	 93.401177 
869.000000	 93.264044 
868.000000	 93.092130 
867.000000	 92.869677 
866.000000	 92.584239 
865.000000	 92.216913 
864.000000	 91.730244 
863.000000	 91.075124 
862.000000	 90.190998 
861.000000	 88.980169 
860.000000	 87.293495 
859.000000	 84.961811 
858.000000	 81.852731 
857.000000	 77.934468 
856.000000	 73.360347 
855.000000	 68.527173 
854.000000	 64.001141 
853.000000	 60.336859 
852.000000	 57.959501 
851.000000	 57.156620 
850.000000	 58.053677 
849.000000	 60.520234 
848.000000	 64.110675 
847.000000	 68.158347 
846.000000	 72.022217 
845.000000	 75.322698 
844.000000	 77.987672 
843.000000	 80.126195 
842.000000	 81.886588 
841.000000	 83.387736 
840.000000	 84.704861 
839.000000	 85.874203 
838.000000	 86.905716 
837.000000	 87.797820 
836.000000	 88.549090 
835.000000	 89.169584 
834.000000	 89.686208 
833.000000	 90.129218 
832.000000	 90.511752 
831.000000	 90.831870 
830.000000	 91.094982 
829.000000	 91.321710 
828.000000	 91.530462 
827.000000	 91.724105 
826.000000	 91.897724 
825.000000	 92.048835 
824.000000	 92.177090 
823.000000	 92.284978 
822.000000	 92.381191 
821.000000	 92.474071 
820.000000	 92.563008 
819.000000	 92.644958 
818.000000	 92.725157 
817.000000	 92.811481 
816.000000	 92.902293 
815.000000	 92.990741 
814.000000	 93.078115 
813.000000	 93.171114 
812.000000	 93.267069 
811.000000	 93.353465 
810.000000	 93.422614 
809.000000	 93.477126 
808.000000	 93.520889 
807.000000	 93.554495 
806.000000	 93.580081 
805.000000	 93.601878 
804.000000	 93.620875 
803.000000	 93.634073 
802.000000	 93.635499 
801.000000	 93.610285 
800.000000	 93.532199 
799.000000	 93.380480 
798.000000	 93.164996 
797.000000	 92.932715 
796.000000	 92.748828 
795.000000	 92.666207 
794.000000	 92.696552 
793.000000	 92.800192 
792.000000	 92.909905 
791.000000	 92.973909 
790.000000	 92.978173 
789.000000	 92.931590 
788.000000	 92.841639 
787.000000	 92.707368 
786.000000	 92.520345 
785.000000	 92.260614 
784.000000	 91.899091 
783.000000	 91.408454 
782.000000	 90.756196 
781.000000	 89.876588 
780.000000	 88.669626 
779.000000	 87.058239 
778.000000	 85.057747 
777.000000	 82.787459 
776.000000	 80.412069 
775.000000	 78.048764 
774.000000	 75.692893 
773.000000	 73.239634 
772.000000	 70.638974 
771.000000	 68.078736 
770.000000	 66.009321 
769.000000	 64.951567 
768.000000	 65.231254 
767.000000	 66.820828 
766.000000	 69.365640 
765.000000	 72.361337 
764.000000	 75.361192 
763.000000	 78.092118 
762.000000	 80.452881 
761.000000	 82.446294 
760.000000	 84.109992 
759.000000	 85.482957 
758.000000	 86.602516 
757.000000	 87.505972 
756.000000	 88.228312 
755.000000	 88.804019 
754.000000	 89.270877 
753.000000	 89.667606 
752.000000	 90.030154 
751.000000	 90.391079 
750.000000	 90.771288 
749.000000	 91.164372 
748.000000	 91.538180 
747.000000	 91.862249 
746.000000	 92.129410 
745.000000	 92.346292 
744.000000	 92.516216 
743.000000	 92.644551 
742.000000	 92.749698 
741.000000	 92.851132 
740.000000	 92.951096 
739.000000	 93.041604 
738.000000	 93.123783 
737.000000	 93.206441 
736.000000	 93.290745 
735.000000	 93.370599 
734.000000	 93.444815 
733.000000	 93.515928 
732.000000	 93.580691 
731.000000	 93.634874 
730.000000	 93.684081 
729.000000	 93.736305 
728.000000	 93.788977 
727.000000	 93.834789 
726.000000	 93.873818 
725.000000	 93.910009 
724.000000	 93.939984 
723.000000	 93.956514 
722.000000	 93.962223 
721.000000	 93.973504 
720.000000	 94.009685 
719.000000	 94.075625 
718.000000	 94.153162 
717.000000	 94.211701 
716.000000	 94.231956 
715.000000	 94.225142 
714.000000	 94.221130 
713.000000	 94.231149 
712.000000	 94.237577 
711.000000	 94.226755 
710.000000	 94.211548 
709.000000	 94.207549 
708.000000	 94.207052 
707.000000	 94.196663 
706.000000	 94.182732 
705.000000	 94.180379 
704.000000	 94.188502 
703.000000	 94.192075 
702.000000	 94.184721 
701.000000	 94.173578 
700.000000	 94.166041 
699.000000	 94.167397 
698.000000	 94.179460 
697.000000	 94.190448 
696.000000	 94.179610 
695.000000	 94.143642 
694.000000	 94.111799 
693.000000	 94.115822 
692.000000	 94.151972 
691.000000	 94.192879 
690.000000	 94.221713 
689.000000	 94.238199 
688.000000	 94.242414 
687.000000	 94.233517 
686.000000	 94.221885 
685.000000	 94.218261 
684.000000	 94.214250 
683.000000	 94.193366 
682.000000	 94.152919 
681.000000	 94.101703 
680.000000	 94.046590 
679.000000	 93.994800 
678.000000	 93.955721 
677.000000	 93.923332 
676.000000	 93.874889 
675.000000	 93.801776 
674.000000	 93.707092 
673.000000	 93.585566 
672.000000	 93.439389 
671.000000	 93.311651 
670.000000	 93.253092 
669.000000	 93.287408 
668.000000	 93.316753 
667.000000	 93.077352 
666.000000	 92.636440 
665.000000	 92.226397 
664.000000	 91.885807 
663.000000	 91.553459 
662.000000	 91.155656 
661.000000	 90.635201 
660.000000	 89.964852 
659.000000	 89.160507 
658.000000	 88.258003 
657.000000	 87.235588 
656.000000	 86.009027 
655.000000	 84.497244 
654.000000	 82.648117 
653.000000	 80.376431 
652.000000	 77.630672 
651.000000	 74.420897 
650.000000	 70.848091 

