PE IR                   SPECTRUM    ASCII       PEDS        1.60        
  -1
~SP.SP
18/03/23
17:37:13.00
18/03/23
17:37:13.00
pili
NI
650.000000
4









SPECTRUM 100,CPU32 MAIN 00.02.8200 12-DECEMBER-2006 10:00:00
MIR TGS
MIR
OPTKBR
78890
0.200000

4.000000
STRONG
RATIO
SPECTRUM
MAGNITUDE
UNIVERSAL ATR
DOUBLE

COMBINED


0


#HDR
-1
-1
#GR
CM-1
%T
0.00002384185791015625
0.0
4000.000000
-1.000000
3351
8
101.075823
57.206980
#DATA
4000.000000	98.393303  
3999.000000	98.390635  
3998.000000	98.387980  
3997.000000	98.385284  
3996.000000	98.388840  
3995.000000	98.396834  
3994.000000	98.406501  
3993.000000	98.415978  
3992.000000	98.423563  
3991.000000	98.426679  
3990.000000	98.423318  
3989.000000	98.414143  
3988.000000	98.402399  
3987.000000	98.391778  
3986.000000	98.384629  
3985.000000	98.381352  
3984.000000	98.380304  
3983.000000	98.378619  
3982.000000	98.374453  
3981.000000	98.369043  
3980.000000	98.365987  
3979.000000	98.367871  
3978.000000	98.373794  
3977.000000	98.380373  
3976.000000	98.384978  
3975.000000	98.387626  
3974.000000	98.389781  
3973.000000	98.391757  
3972.000000	98.392011  
3971.000000	98.389348  
3970.000000	98.385400  
3969.000000	98.384016  
3968.000000	98.387672  
3967.000000	98.394971  
3966.000000	98.401816  
3965.000000	98.404387  
3964.000000	98.400653  
3963.000000	98.390056  
3962.000000	98.373599  
3961.000000	98.354938  
3960.000000	98.340207  
3959.000000	98.334834  
3958.000000	98.339422  
3957.000000	98.349068  
3956.000000	98.357381  
3955.000000	98.361790  
3954.000000	98.364773  
3953.000000	98.369790  
3952.000000	98.376893  
3951.000000	98.383025  
3950.000000	98.386416  
3949.000000	98.389019  
3948.000000	98.393540  
3947.000000	98.399296  
3946.000000	98.402365  
3945.000000	98.399480  
3944.000000	98.391334  
3943.000000	98.382164  
3942.000000	98.376407  
3941.000000	98.375843  
3940.000000	98.379613  
3939.000000	98.385543  
3938.000000	98.391450  
3937.000000	98.395995  
3936.000000	98.398224  
3935.000000	98.396554  
3934.000000	98.389087  
3933.000000	98.375699  
3932.000000	98.359744  
3931.000000	98.346634  
3930.000000	98.340552  
3929.000000	98.342074  
3928.000000	98.348121  
3927.000000	98.354236  
3926.000000	98.357517  
3925.000000	98.358384  
3924.000000	98.359769  
3923.000000	98.363994  
3922.000000	98.370037  
3921.000000	98.373902  
3920.000000	98.372314  
3919.000000	98.366312  
3918.000000	98.360289  
3917.000000	98.357481  
3916.000000	98.357725  
3915.000000	98.359719  
3914.000000	98.363393  
3913.000000	98.369039  
3912.000000	98.375593  
3911.000000	98.380925  
3910.000000	98.383628  
3909.000000	98.384064  
3908.000000	98.383219  
3907.000000	98.381333  
3906.000000	98.378411  
3905.000000	98.375683  
3904.000000	98.375843  
3903.000000	98.380570  
3902.000000	98.388249  
3901.000000	98.394626  
3900.000000	98.396156  
3899.000000	98.393212  
3898.000000	98.389548  
3897.000000	98.388472  
3896.000000	98.390338  
3895.000000	98.393757  
3894.000000	98.398448  
3893.000000	98.405811  
3892.000000	98.415040  
3891.000000	98.420642  
3890.000000	98.417635  
3889.000000	98.407779  
3888.000000	98.398464  
3887.000000	98.395653  
3886.000000	98.397902  
3885.000000	98.398135  
3884.000000	98.393979  
3883.000000	98.392477  
3882.000000	98.402045  
3881.000000	98.421941  
3880.000000	98.440628  
3879.000000	98.446111  
3878.000000	98.436845  
3877.000000	98.420670  
3876.000000	98.406708  
3875.000000	98.399493  
3874.000000	98.398345  
3873.000000	98.400989  
3872.000000	98.406205  
3871.000000	98.412372  
3870.000000	98.415779  
3869.000000	98.413432  
3868.000000	98.407865  
3867.000000	98.405392  
3866.000000	98.408945  
3865.000000	98.414593  
3864.000000	98.415950  
3863.000000	98.411940  
3862.000000	98.408308  
3861.000000	98.410571  
3860.000000	98.417149  
3859.000000	98.420644  
3858.000000	98.414250  
3857.000000	98.397506  
3856.000000	98.378162  
3855.000000	98.368153  
3854.000000	98.369959  
3853.000000	98.369620  
3852.000000	98.358888  
3851.000000	98.346850  
3850.000000	98.346915  
3849.000000	98.366625  
3848.000000	98.400199  
3847.000000	98.433101  
3846.000000	98.454171  
3845.000000	98.460437  
3844.000000	98.454884  
3843.000000	98.442417  
3842.000000	98.427840  
3841.000000	98.415302  
3840.000000	98.408008  
3839.000000	98.407950  
3838.000000	98.414968  
3837.000000	98.427022  
3836.000000	98.441916  
3835.000000	98.457266  
3834.000000	98.469289  
3833.000000	98.473221  
3832.000000	98.466599  
3831.000000	98.452607  
3830.000000	98.439440  
3829.000000	98.436073  
3828.000000	98.446306  
3827.000000	98.463797  
3826.000000	98.474093  
3825.000000	98.465741  
3824.000000	98.440625  
3823.000000	98.415579  
3822.000000	98.411235  
3821.000000	98.431227  
3820.000000	98.457236  
3819.000000	98.468607  
3818.000000	98.460234  
3817.000000	98.443971  
3816.000000	98.434340  
3815.000000	98.434098  
3814.000000	98.437854  
3813.000000	98.442053  
3812.000000	98.446386  
3811.000000	98.450223  
3810.000000	98.452065  
3809.000000	98.452629  
3808.000000	98.454406  
3807.000000	98.457506  
3806.000000	98.459159  
3805.000000	98.457536  
3804.000000	98.453837  
3803.000000	98.450918  
3802.000000	98.449654  
3801.000000	98.448262  
3800.000000	98.446416  
3799.000000	98.446591  
3798.000000	98.451562  
3797.000000	98.460546  
3796.000000	98.467116  
3795.000000	98.465581  
3794.000000	98.458238  
3793.000000	98.452798  
3792.000000	98.454725  
3791.000000	98.462088  
3790.000000	98.467318  
3789.000000	98.464632  
3788.000000	98.455143  
3787.000000	98.445102  
3786.000000	98.439748  
3785.000000	98.438725  
3784.000000	98.438226  
3783.000000	98.437612  
3782.000000	98.442083  
3781.000000	98.457454  
3780.000000	98.481518  
3779.000000	98.502474  
3778.000000	98.508363  
3777.000000	98.496250  
3776.000000	98.471745  
3775.000000	98.442982  
3774.000000	98.416394  
3773.000000	98.397061  
3772.000000	98.390032  
3771.000000	98.397435  
3770.000000	98.414640  
3769.000000	98.432995  
3768.000000	98.446937  
3767.000000	98.455730  
3766.000000	98.459383  
3765.000000	98.456154  
3764.000000	98.445915  
3763.000000	98.434162  
3762.000000	98.429543  
3761.000000	98.437083  
3760.000000	98.453848  
3759.000000	98.471089  
3758.000000	98.480408  
3757.000000	98.478615  
3756.000000	98.468234  
3755.000000	98.454790  
3754.000000	98.443251  
3753.000000	98.435446  
3752.000000	98.429869  
3751.000000	98.422559  
3750.000000	98.410154  
3749.000000	98.392657  
3748.000000	98.373138  
3747.000000	98.359011  
3746.000000	98.358853  
3745.000000	98.370545  
3744.000000	98.376961  
3743.000000	98.365966  
3742.000000	98.348036  
3741.000000	98.341409  
3740.000000	98.350117  
3739.000000	98.361816  
3738.000000	98.362015  
3737.000000	98.348973  
3736.000000	98.336364  
3735.000000	98.341517  
3734.000000	98.369004  
3733.000000	98.405223  
3732.000000	98.428392  
3731.000000	98.424306  
3730.000000	98.396222  
3729.000000	98.361932  
3728.000000	98.340581  
3727.000000	98.339524  
3726.000000	98.350583  
3725.000000	98.359944  
3724.000000	98.361311  
3723.000000	98.358324  
3722.000000	98.358944  
3721.000000	98.369879  
3720.000000	98.393224  
3719.000000	98.424873  
3718.000000	98.455374  
3717.000000	98.475108  
3716.000000	98.480374  
3715.000000	98.474247  
3714.000000	98.461973  
3713.000000	98.447167  
3712.000000	98.432686  
3711.000000	98.424027  
3710.000000	98.426606  
3709.000000	98.439128  
3708.000000	98.454152  
3707.000000	98.464964  
3706.000000	98.469646  
3705.000000	98.469149  
3704.000000	98.464651  
3703.000000	98.456378  
3702.000000	98.445846  
3701.000000	98.436889  
3700.000000	98.433387  
3699.000000	98.436817  
3698.000000	98.446141  
3697.000000	98.457598  
3696.000000	98.465074  
3695.000000	98.463779  
3694.000000	98.454932  
3693.000000	98.447673  
3692.000000	98.453999  
3691.000000	98.478752  
3690.000000	98.510417  
3689.000000	98.527187  
3688.000000	98.517353  
3687.000000	98.490187  
3686.000000	98.465756  
3685.000000	98.457580  
3684.000000	98.464147  
3683.000000	98.474966  
3682.000000	98.483740  
3681.000000	98.491630  
3680.000000	98.500593  
3679.000000	98.508246  
3678.000000	98.511079  
3677.000000	98.509559  
3676.000000	98.507492  
3675.000000	98.506484  
3674.000000	98.505377  
3673.000000	98.504480  
3672.000000	98.507595  
3671.000000	98.518174  
3670.000000	98.531047  
3669.000000	98.536201  
3668.000000	98.531332  
3667.000000	98.523498  
3666.000000	98.522601  
3665.000000	98.534783  
3664.000000	98.557342  
3663.000000	98.580577  
3662.000000	98.594834  
3661.000000	98.597080  
3660.000000	98.591250  
3659.000000	98.582548  
3658.000000	98.572755  
3657.000000	98.560379  
3656.000000	98.544891  
3655.000000	98.529359  
3654.000000	98.518897  
3653.000000	98.517431  
3652.000000	98.525254  
3651.000000	98.538552  
3650.000000	98.551425  
3649.000000	98.559858  
3648.000000	98.564315  
3647.000000	98.567465  
3646.000000	98.571868  
3645.000000	98.579711  
3644.000000	98.591194  
3643.000000	98.603567  
3642.000000	98.612139  
3641.000000	98.612845  
3640.000000	98.605058  
3639.000000	98.592020  
3638.000000	98.577996  
3637.000000	98.565256  
3636.000000	98.554118  
3635.000000	98.544609  
3634.000000	98.537283  
3633.000000	98.532593  
3632.000000	98.530616  
3631.000000	98.531238  
3630.000000	98.533635  
3629.000000	98.534978  
3628.000000	98.533432  
3627.000000	98.534595  
3626.000000	98.547677  
3625.000000	98.575013  
3624.000000	98.607756  
3623.000000	98.632830  
3622.000000	98.645248  
3621.000000	98.651354  
3620.000000	98.659328  
3619.000000	98.667990  
3618.000000	98.668638  
3617.000000	98.657472  
3616.000000	98.640492  
3615.000000	98.626357  
3614.000000	98.617571  
3613.000000	98.609458  
3612.000000	98.598021  
3611.000000	98.586866  
3610.000000	98.584307  
3609.000000	98.594298  
3608.000000	98.611188  
3607.000000	98.625806  
3606.000000	98.635605  
3605.000000	98.645227  
3604.000000	98.659226  
3603.000000	98.677045  
3602.000000	98.695099  
3601.000000	98.711474  
3600.000000	98.727096  
3599.000000	98.742486  
3598.000000	98.755539  
3597.000000	98.764030  
3596.000000	98.768401  
3595.000000	98.770446  
3594.000000	98.769994  
3593.000000	98.765190  
3592.000000	98.755562  
3591.000000	98.743824  
3590.000000	98.734590  
3589.000000	98.732253  
3588.000000	98.737517  
3587.000000	98.746528  
3586.000000	98.756856  
3585.000000	98.771428  
3584.000000	98.793421  
3583.000000	98.819796  
3582.000000	98.842685  
3581.000000	98.855759  
3580.000000	98.858426  
3579.000000	98.854247  
3578.000000	98.847001  
3577.000000	98.839736  
3576.000000	98.835703  
3575.000000	98.837308  
3574.000000	98.842945  
3573.000000	98.847721  
3572.000000	98.848180  
3571.000000	98.846124  
3570.000000	98.846845  
3569.000000	98.854262  
3568.000000	98.867034  
3567.000000	98.879676  
3566.000000	98.889181  
3565.000000	98.899728  
3564.000000	98.917124  
3563.000000	98.940052  
3562.000000	98.959675  
3561.000000	98.968044  
3560.000000	98.966018  
3559.000000	98.962190  
3558.000000	98.963888  
3557.000000	98.970691  
3556.000000	98.977634  
3555.000000	98.983081  
3554.000000	98.991078  
3553.000000	99.006180  
3552.000000	99.028265  
3551.000000	99.053413  
3550.000000	99.077612  
3549.000000	99.097309  
3548.000000	99.108330  
3547.000000	99.107778  
3546.000000	99.098193  
3545.000000	99.088258  
3544.000000	99.086897  
3543.000000	99.095850  
3542.000000	99.108524  
3541.000000	99.116850  
3540.000000	99.119202  
3539.000000	99.121383  
3538.000000	99.129843  
3537.000000	99.144771  
3536.000000	99.160490  
3535.000000	99.172119  
3534.000000	99.179957  
3533.000000	99.187030  
3532.000000	99.194521  
3531.000000	99.200901  
3530.000000	99.204364  
3529.000000	99.204782  
3528.000000	99.203841  
3527.000000	99.204632  
3526.000000	99.210527  
3525.000000	99.222573  
3524.000000	99.237362  
3523.000000	99.249135  
3522.000000	99.255114  
3521.000000	99.257629  
3520.000000	99.260279  
3519.000000	99.263856  
3518.000000	99.267656  
3517.000000	99.273370  
3516.000000	99.284904  
3515.000000	99.303362  
3514.000000	99.323768  
3513.000000	99.338421  
3512.000000	99.343204  
3511.000000	99.339822  
3510.000000	99.332352  
3509.000000	99.323131  
3508.000000	99.312912  
3507.000000	99.304004  
3506.000000	99.301193  
3505.000000	99.308208  
3504.000000	99.322888  
3503.000000	99.336654  
3502.000000	99.340612  
3501.000000	99.332774  
3500.000000	99.319353  
3499.000000	99.310168  
3498.000000	99.313301  
3497.000000	99.331445  
3496.000000	99.359531  
3495.000000	99.385552  
3494.000000	99.396791  
3493.000000	99.388417  
3492.000000	99.366671  
3491.000000	99.343528  
3490.000000	99.328540  
3489.000000	99.325097  
3488.000000	99.331908  
3487.000000	99.345394  
3486.000000	99.361016  
3485.000000	99.374870  
3484.000000	99.385125  
3483.000000	99.391318  
3482.000000	99.392454  
3481.000000	99.387480  
3480.000000	99.378217  
3479.000000	99.369818  
3478.000000	99.366392  
3477.000000	99.366771  
3476.000000	99.366342  
3475.000000	99.363216  
3474.000000	99.360987  
3473.000000	99.364352  
3472.000000	99.373032  
3471.000000	99.381297  
3470.000000	99.383549  
3469.000000	99.379805  
3468.000000	99.375821  
3467.000000	99.378397  
3466.000000	99.390034  
3465.000000	99.406797  
3464.000000	99.420618  
3463.000000	99.425163  
3462.000000	99.421884  
3461.000000	99.420575  
3460.000000	99.431962  
3459.000000	99.457732  
3458.000000	99.487653  
3457.000000	99.507695  
3456.000000	99.511846  
3455.000000	99.506559  
3454.000000	99.504001  
3453.000000	99.511112  
3452.000000	99.524602  
3451.000000	99.534781  
3450.000000	99.533606  
3449.000000	99.520622  
3448.000000	99.503300  
3447.000000	99.491744  
3446.000000	99.490910  
3445.000000	99.496809  
3444.000000	99.500668  
3443.000000	99.497076  
3442.000000	99.488211  
3441.000000	99.480352  
3440.000000	99.477324  
3439.000000	99.478225  
3438.000000	99.479883  
3437.000000	99.479064  
3436.000000	99.472808  
3435.000000	99.459884  
3434.000000	99.443519  
3433.000000	99.430847  
3432.000000	99.427667  
3431.000000	99.434265  
3430.000000	99.447046  
3429.000000	99.462262  
3428.000000	99.476380  
3427.000000	99.484957  
3426.000000	99.484859  
3425.000000	99.477941  
3424.000000	99.470028  
3423.000000	99.465410  
3422.000000	99.463787  
3421.000000	99.462828  
3420.000000	99.461715  
3419.000000	99.461224  
3418.000000	99.461862  
3417.000000	99.462760  
3416.000000	99.461120  
3415.000000	99.452543  
3414.000000	99.434500  
3413.000000	99.411508  
3412.000000	99.394977  
3411.000000	99.394452  
3410.000000	99.408094  
3409.000000	99.423256  
3408.000000	99.427447  
3407.000000	99.418853  
3406.000000	99.406213  
3405.000000	99.399164  
3404.000000	99.399175  
3403.000000	99.399419  
3402.000000	99.392729  
3401.000000	99.378934  
3400.000000	99.364008  
3399.000000	99.352786  
3398.000000	99.343740  
3397.000000	99.331191  
3396.000000	99.312112  
3395.000000	99.290526  
3394.000000	99.275551  
3393.000000	99.274917  
3392.000000	99.288975  
3391.000000	99.310089  
3390.000000	99.328027  
3389.000000	99.336640  
3388.000000	99.336684  
3387.000000	99.333986  
3386.000000	99.335130  
3385.000000	99.342272  
3384.000000	99.349665  
3383.000000	99.346500  
3382.000000	99.326835  
3381.000000	99.297646  
3380.000000	99.274798  
3379.000000	99.269448  
3378.000000	99.279074  
3377.000000	99.291949  
3376.000000	99.298147  
3375.000000	99.295593  
3374.000000	99.288607  
3373.000000	99.283674  
3372.000000	99.285291  
3371.000000	99.292563  
3370.000000	99.299271  
3369.000000	99.299078  
3368.000000	99.291608  
3367.000000	99.282852  
3366.000000	99.279488  
3365.000000	99.282933  
3364.000000	99.288493  
3363.000000	99.289967  
3362.000000	99.285763  
3361.000000	99.280746  
3360.000000	99.280878  
3359.000000	99.285498  
3358.000000	99.286480  
3357.000000	99.276513  
3356.000000	99.257111  
3355.000000	99.236862  
3354.000000	99.222643  
3353.000000	99.214713  
3352.000000	99.209908  
3351.000000	99.206942  
3350.000000	99.207420  
3349.000000	99.212809  
3348.000000	99.221582  
3347.000000	99.229360  
3346.000000	99.231910  
3345.000000	99.228612  
3344.000000	99.223216  
3343.000000	99.220606  
3342.000000	99.222056  
3341.000000	99.223246  
3340.000000	99.217249  
3339.000000	99.200814  
3338.000000	99.178697  
3337.000000	99.160933  
3336.000000	99.154050  
3335.000000	99.154849  
3334.000000	99.154039  
3333.000000	99.145194  
3332.000000	99.128282  
3331.000000	99.105923  
3330.000000	99.080982  
3329.000000	99.059233  
3328.000000	99.049256  
3327.000000	99.054640  
3326.000000	99.067932  
3325.000000	99.076687  
3324.000000	99.075266  
3323.000000	99.067557  
3322.000000	99.058945  
3321.000000	99.050067  
3320.000000	99.039236  
3319.000000	99.026661  
3318.000000	99.013534  
3317.000000	98.999442  
3316.000000	98.983834  
3315.000000	98.969308  
3314.000000	98.960770  
3313.000000	98.960383  
3312.000000	98.964015  
3311.000000	98.963171  
3310.000000	98.950906  
3309.000000	98.926987  
3308.000000	98.897898  
3307.000000	98.871265  
3306.000000	98.849580  
3305.000000	98.829295  
3304.000000	98.805946  
3303.000000	98.779691  
3302.000000	98.755673  
3301.000000	98.739116  
3300.000000	98.729883  
3299.000000	98.721757  
3298.000000	98.707717  
3297.000000	98.686760  
3296.000000	98.665152  
3295.000000	98.649858  
3294.000000	98.640793  
3293.000000	98.630643  
3292.000000	98.612600  
3291.000000	98.587259  
3290.000000	98.561059  
3289.000000	98.538872  
3288.000000	98.519846  
3287.000000	98.500690  
3286.000000	98.481084  
3285.000000	98.463478  
3284.000000	98.447759  
3283.000000	98.429443  
3282.000000	98.405877  
3281.000000	98.382674  
3280.000000	98.369871  
3279.000000	98.370560  
3278.000000	98.376329  
3277.000000	98.376070  
3276.000000	98.367389  
3275.000000	98.356879  
3274.000000	98.350316  
3273.000000	98.345398  
3272.000000	98.333969  
3271.000000	98.309095  
3270.000000	98.270134  
3269.000000	98.223657  
3268.000000	98.180617  
3267.000000	98.150592  
3266.000000	98.136216  
3265.000000	98.132118  
3264.000000	98.129133  
3263.000000	98.120104  
3262.000000	98.103421  
3261.000000	98.083101  
3260.000000	98.065523  
3259.000000	98.054074  
3258.000000	98.045638  
3257.000000	98.032752  
3256.000000	98.009954  
3255.000000	97.978063  
3254.000000	97.942467  
3253.000000	97.908265  
3252.000000	97.877814  
3251.000000	97.852298  
3250.000000	97.833610  
3249.000000	97.822697  
3248.000000	97.815653  
3247.000000	97.803361  
3246.000000	97.777892  
3245.000000	97.740531  
3244.000000	97.702113  
3243.000000	97.673592  
3242.000000	97.655913  
3241.000000	97.639406  
3240.000000	97.612896  
3239.000000	97.573890  
3238.000000	97.531083  
3237.000000	97.497395  
3236.000000	97.479393  
3235.000000	97.472147  
3234.000000	97.463960  
3233.000000	97.445767  
3232.000000	97.415823  
3231.000000	97.377117  
3230.000000	97.333737  
3229.000000	97.290743  
3228.000000	97.254240  
3227.000000	97.228046  
3226.000000	97.210697  
3225.000000	97.197661  
3224.000000	97.185804  
3223.000000	97.173734  
3222.000000	97.158625  
3221.000000	97.135862  
3220.000000	97.103219  
3219.000000	97.064134  
3218.000000	97.025690  
3217.000000	96.993425  
3216.000000	96.967776  
3215.000000	96.944481  
3214.000000	96.918399  
3213.000000	96.887919  
3212.000000	96.856099  
3211.000000	96.827526  
3210.000000	96.804568  
3209.000000	96.786688  
3208.000000	96.771618  
3207.000000	96.755450  
3206.000000	96.732807  
3205.000000	96.700050  
3204.000000	96.659383  
3203.000000	96.617898  
3202.000000	96.580901  
3201.000000	96.546669  
3200.000000	96.508976  
3199.000000	96.464849  
3198.000000	96.418987  
3197.000000	96.379575  
3196.000000	96.349253  
3195.000000	96.320718  
3194.000000	96.282313  
3193.000000	96.228317  
3192.000000	96.163192  
3191.000000	96.096026  
3190.000000	96.032718  
3189.000000	95.974374  
3188.000000	95.920451  
3187.000000	95.869690  
3186.000000	95.818212  
3185.000000	95.760700  
3184.000000	95.695949  
3183.000000	95.629716  
3182.000000	95.569731  
3181.000000	95.518059  
3180.000000	95.469586  
3179.000000	95.417369  
3178.000000	95.357522  
3177.000000	95.288838  
3176.000000	95.210798  
3175.000000	95.125062  
3174.000000	95.037928  
3173.000000	94.957284  
3172.000000	94.885268  
3171.000000	94.816456  
3170.000000	94.745880  
3169.000000	94.676966  
3168.000000	94.617954  
3167.000000	94.570953  
3166.000000	94.528272  
3165.000000	94.480254  
3164.000000	94.423403  
3163.000000	94.359622  
3162.000000	94.291103  
3161.000000	94.218773  
3160.000000	94.143521  
3159.000000	94.065964  
3158.000000	93.986171  
3157.000000	93.905714  
3156.000000	93.827986  
3155.000000	93.753412  
3154.000000	93.675912  
3153.000000	93.588272  
3152.000000	93.491260  
3151.000000	93.393927  
3150.000000	93.303939  
3149.000000	93.220435  
3148.000000	93.137428  
3147.000000	93.051465  
3146.000000	92.964065  
3145.000000	92.878463  
3144.000000	92.796050  
3143.000000	92.715220  
3142.000000	92.632222  
3141.000000	92.543717  
3140.000000	92.449745  
3139.000000	92.353827  
3138.000000	92.259274  
3137.000000	92.165941  
3136.000000	92.071468  
3135.000000	91.974944  
3134.000000	91.877623  
3133.000000	91.779812  
3132.000000	91.678645  
3131.000000	91.570398  
3130.000000	91.454879  
3129.000000	91.336339  
3128.000000	91.219288  
3127.000000	91.103648  
3126.000000	90.984611  
3125.000000	90.857172  
3124.000000	90.720145  
3123.000000	90.576119  
3122.000000	90.429078  
3121.000000	90.282566  
3120.000000	90.138011  
3119.000000	89.992183  
3118.000000	89.836716  
3117.000000	89.663253  
3116.000000	89.471039  
3115.000000	89.268580  
3114.000000	89.066649  
3113.000000	88.869991  
3112.000000	88.675867  
3111.000000	88.478767  
3110.000000	88.274779  
3109.000000	88.062638  
3108.000000	87.843831  
3107.000000	87.623030  
3106.000000	87.406577  
3105.000000	87.198373  
3104.000000	86.997113  
3103.000000	86.798166  
3102.000000	86.597573  
3101.000000	86.393576  
3100.000000	86.185602  
3099.000000	85.974272  
3098.000000	85.762856  
3097.000000	85.556752  
3096.000000	85.359933  
3095.000000	85.172117  
3094.000000	84.989828  
3093.000000	84.809745  
3092.000000	84.631219  
3091.000000	84.457001  
3090.000000	84.291836  
3089.000000	84.138509  
3088.000000	83.994038  
3087.000000	83.851030  
3086.000000	83.704377  
3085.000000	83.556125  
3084.000000	83.412885  
3083.000000	83.279531  
3082.000000	83.156445  
3081.000000	83.041536  
3080.000000	82.932900  
3079.000000	82.829726  
3078.000000	82.732126  
3077.000000	82.640001  
3076.000000	82.551215  
3075.000000	82.461908  
3074.000000	82.370661  
3073.000000	82.282406  
3072.000000	82.206205  
3071.000000	82.147944  
3070.000000	82.105523  
3069.000000	82.071072  
3068.000000	82.037147  
3067.000000	82.001078  
3066.000000	81.964715  
3065.000000	81.930903  
3064.000000	81.900183  
3063.000000	81.871030  
3062.000000	81.843524  
3061.000000	81.822122  
3060.000000	81.813531  
3059.000000	81.821044  
3058.000000	81.841078  
3057.000000	81.865526  
3056.000000	81.887909  
3055.000000	81.907609  
3054.000000	81.928447  
3053.000000	81.953691  
3052.000000	81.983009  
3051.000000	82.013868  
3050.000000	82.044119  
3049.000000	82.072243  
3048.000000	82.097070  
3047.000000	82.119787  
3046.000000	82.145114  
3045.000000	82.176751  
3044.000000	82.210942  
3043.000000	82.237832  
3042.000000	82.250849  
3041.000000	82.252462  
3040.000000	82.249444  
3039.000000	82.245481  
3038.000000	82.240687  
3037.000000	82.234979  
3036.000000	82.227584  
3035.000000	82.214581  
3034.000000	82.191529  
3033.000000	82.159326  
3032.000000	82.124611  
3031.000000	82.093822  
3030.000000	82.069300  
3029.000000	82.051398  
3028.000000	82.040855  
3027.000000	82.037016  
3026.000000	82.035912  
3025.000000	82.032654  
3024.000000	82.025522  
3023.000000	82.016496  
3022.000000	82.008224  
3021.000000	82.001492  
3020.000000	81.995272  
3019.000000	81.988295  
3018.000000	81.980609  
3017.000000	81.974165  
3016.000000	81.971640  
3015.000000	81.973873  
3014.000000	81.978263  
3013.000000	81.980461  
3012.000000	81.978564  
3011.000000	81.975322  
3010.000000	81.974684  
3009.000000	81.975201  
3008.000000	81.968046  
3007.000000	81.943229  
3006.000000	81.897382  
3005.000000	81.833944  
3004.000000	81.757285  
3003.000000	81.671549  
3002.000000	81.587816  
3001.000000	81.528585  
3000.000000	81.518926  
2999.000000	81.569815  
2998.000000	81.668652  
2997.000000	81.783436  
2996.000000	81.873541  
2995.000000	81.900121  
2994.000000	81.836022  
2993.000000	81.675900  
2992.000000	81.441988  
2991.000000	81.179183  
2990.000000	80.940186  
2989.000000	80.767530  
2988.000000	80.681535  
2987.000000	80.679640  
2986.000000	80.745038  
2985.000000	80.857393  
2984.000000	80.999048  
2983.000000	81.156397  
2982.000000	81.319183  
2981.000000	81.479665  
2980.000000	81.632473  
2979.000000	81.775035  
2978.000000	81.907533  
2977.000000	82.031173  
2976.000000	82.146432  
2975.000000	82.254212  
2974.000000	82.359121  
2973.000000	82.470346  
2972.000000	82.598118  
2971.000000	82.748977  
2970.000000	82.922864  
2969.000000	83.112087  
2968.000000	83.302725  
2967.000000	83.480385  
2966.000000	83.637904  
2965.000000	83.777787  
2964.000000	83.906661  
2963.000000	84.027921  
2962.000000	84.139354  
2961.000000	84.235338  
2960.000000	84.309738  
2959.000000	84.358736  
2958.000000	84.383139  
2957.000000	84.386868  
2956.000000	84.371484  
2955.000000	84.333551  
2954.000000	84.269484  
2953.000000	84.181774  
2952.000000	84.077902  
2951.000000	83.964177  
2950.000000	83.843779  
2949.000000	83.720329  
2948.000000	83.599236  
2947.000000	83.483619  
2946.000000	83.371209  
2945.000000	83.257876  
2944.000000	83.143912  
2943.000000	83.035666  
2942.000000	82.940983  
2941.000000	82.863369  
2940.000000	82.800318  
2939.000000	82.746832  
2938.000000	82.700584  
2937.000000	82.663781  
2936.000000	82.640452  
2935.000000	82.632609  
2934.000000	82.638847  
2933.000000	82.655646  
2932.000000	82.680098  
2931.000000	82.712886  
2930.000000	82.758665  
2929.000000	82.820962  
2928.000000	82.895186  
2927.000000	82.969059  
2926.000000	83.032686  
2925.000000	83.087634  
2924.000000	83.144113  
2923.000000	83.210176  
2922.000000	83.285823  
2921.000000	83.366145  
2920.000000	83.446743  
2919.000000	83.525692  
2918.000000	83.603556  
2917.000000	83.683462  
2916.000000	83.769554  
2915.000000	83.863161  
2914.000000	83.960129  
2913.000000	84.052759  
2912.000000	84.135082  
2911.000000	84.206961  
2910.000000	84.273640  
2909.000000	84.341166  
2908.000000	84.411647  
2907.000000	84.482736  
2906.000000	84.551312  
2905.000000	84.616569  
2904.000000	84.678979  
2903.000000	84.737271  
2902.000000	84.787703  
2901.000000	84.826589  
2900.000000	84.853186  
2899.000000	84.871073  
2898.000000	84.886866  
2897.000000	84.906148  
2896.000000	84.929442  
2895.000000	84.952230  
2894.000000	84.969779  
2893.000000	84.981459  
2892.000000	84.989730  
2891.000000	84.996045  
2890.000000	84.999270  
2889.000000	84.997870  
2888.000000	84.992521  
2887.000000	84.986558  
2886.000000	84.984353  
2885.000000	84.988735  
2884.000000	84.999432  
2883.000000	85.014538  
2882.000000	85.033692  
2881.000000	85.058459  
2880.000000	85.088818  
2879.000000	85.120917  
2878.000000	85.150000  
2877.000000	85.174661  
2876.000000	85.196682  
2875.000000	85.217739  
2874.000000	85.238230  
2873.000000	85.258693  
2872.000000	85.279935  
2871.000000	85.301287  
2870.000000	85.320236  
2869.000000	85.334348  
2868.000000	85.343022  
2867.000000	85.347902  
2866.000000	85.352694  
2865.000000	85.361800  
2864.000000	85.376889  
2863.000000	85.394338  
2862.000000	85.407486  
2861.000000	85.412026  
2860.000000	85.408847  
2859.000000	85.402256  
2858.000000	85.397018  
2857.000000	85.396733  
2856.000000	85.402726  
2855.000000	85.413414  
2854.000000	85.425653  
2853.000000	85.437386  
2852.000000	85.448445  
2851.000000	85.458727  
2850.000000	85.466685  
2849.000000	85.470330  
2848.000000	85.469497  
2847.000000	85.466666  
2846.000000	85.465264  
2845.000000	85.466570  
2844.000000	85.468097  
2843.000000	85.466002  
2842.000000	85.459831  
2841.000000	85.453914  
2840.000000	85.452487  
2839.000000	85.453514  
2838.000000	85.448879  
2837.000000	85.431415  
2836.000000	85.401061  
2835.000000	85.363633  
2834.000000	85.323936  
2833.000000	85.280864  
2832.000000	85.229442  
2831.000000	85.167075  
2830.000000	85.096560  
2829.000000	85.022430  
2828.000000	84.945778  
2827.000000	84.864599  
2826.000000	84.778795  
2825.000000	84.692385  
2824.000000	84.609969  
2823.000000	84.532765  
2822.000000	84.458987  
2821.000000	84.386510  
2820.000000	84.314429  
2819.000000	84.243826  
2818.000000	84.178062  
2817.000000	84.120497  
2816.000000	84.070803  
2815.000000	84.025568  
2814.000000	83.983777  
2813.000000	83.949112  
2812.000000	83.924710  
2811.000000	83.908242  
2810.000000	83.895310  
2809.000000	83.885882  
2808.000000	83.883605  
2807.000000	83.889690  
2806.000000	83.901532  
2805.000000	83.917626  
2804.000000	83.940251  
2803.000000	83.971870  
2802.000000	84.010965  
2801.000000	84.052338  
2800.000000	84.089623  
2799.000000	84.116954  
2798.000000	84.130460  
2797.000000	84.129935  
2796.000000	84.118745  
2795.000000	84.101787  
2794.000000	84.083849  
2793.000000	84.068473  
2792.000000	84.055560  
2791.000000	84.039976  
2790.000000	84.015630  
2789.000000	83.982609  
2788.000000	83.948307  
2787.000000	83.919683  
2786.000000	83.896010  
2785.000000	83.871493  
2784.000000	83.844213  
2783.000000	83.819848  
2782.000000	83.805813  
2781.000000	83.803488  
2780.000000	83.807805  
2779.000000	83.813953  
2778.000000	83.822722  
2777.000000	83.838484  
2776.000000	83.863223  
2775.000000	83.894245  
2774.000000	83.927412  
2773.000000	83.960464  
2772.000000	83.992422  
2771.000000	84.021886  
2770.000000	84.048066  
2769.000000	84.072657  
2768.000000	84.098491  
2767.000000	84.126227  
2766.000000	84.153918  
2765.000000	84.179914  
2764.000000	84.204370  
2763.000000	84.226938  
2762.000000	84.244317  
2761.000000	84.251898  
2760.000000	84.248306  
2759.000000	84.237584  
2758.000000	84.225949  
2757.000000	84.215977  
2756.000000	84.204282  
2755.000000	84.185501  
2754.000000	84.158307  
2753.000000	84.126722  
2752.000000	84.095960  
2751.000000	84.068477  
2750.000000	84.044085  
2749.000000	84.021390  
2748.000000	83.997464  
2747.000000	83.967985  
2746.000000	83.930538  
2745.000000	83.887859  
2744.000000	83.845801  
2743.000000	83.807443  
2742.000000	83.770185  
2741.000000	83.728728  
2740.000000	83.679737  
2739.000000	83.623344  
2738.000000	83.561663  
2737.000000	83.497494  
2736.000000	83.434419  
2735.000000	83.376580  
2734.000000	83.326689  
2733.000000	83.284124  
2732.000000	83.246544  
2731.000000	83.214515  
2730.000000	83.193288  
2729.000000	83.188213  
2728.000000	83.199265  
2727.000000	83.222452  
2726.000000	83.256173  
2725.000000	83.302981  
2724.000000	83.364297  
2723.000000	83.436462  
2722.000000	83.514146  
2721.000000	83.595931  
2720.000000	83.684789  
2719.000000	83.784298  
2718.000000	83.895560  
2717.000000	84.016165  
2716.000000	84.140851  
2715.000000	84.265174  
2714.000000	84.390332  
2713.000000	84.522308  
2712.000000	84.663720  
2711.000000	84.808145  
2710.000000	84.945839  
2709.000000	85.074758  
2708.000000	85.203234  
2707.000000	85.341868  
2706.000000	85.495012  
2705.000000	85.659453  
2704.000000	85.827798  
2703.000000	85.991899  
2702.000000	86.145962  
2701.000000	86.289236  
2700.000000	86.425523  
2699.000000	86.559064  
2698.000000	86.691058  
2697.000000	86.820187  
2696.000000	86.945296  
2695.000000	87.066851  
2694.000000	87.186647  
2693.000000	87.307057  
2692.000000	87.430354  
2691.000000	87.558079  
2690.000000	87.690535  
2689.000000	87.826200  
2688.000000	87.961388  
2687.000000	88.091495  
2686.000000	88.214037  
2685.000000	88.330520  
2684.000000	88.444512  
2683.000000	88.557933  
2682.000000	88.669806  
2681.000000	88.778082  
2680.000000	88.881413  
2679.000000	88.979334  
2678.000000	89.071893  
2677.000000	89.159113  
2676.000000	89.239711  
2675.000000	89.310322  
2674.000000	89.367054  
2673.000000	89.407957  
2672.000000	89.433217  
2671.000000	89.443261  
2670.000000	89.437883  
2669.000000	89.417131  
2668.000000	89.381866  
2667.000000	89.333569  
2666.000000	89.274933  
2665.000000	89.210440  
2664.000000	89.144464  
2663.000000	89.078209  
2662.000000	89.009886  
2661.000000	88.938789  
2660.000000	88.868360  
2659.000000	88.804696  
2658.000000	88.752544  
2657.000000	88.712758  
2656.000000	88.682522  
2655.000000	88.657340  
2654.000000	88.633566  
2653.000000	88.610329  
2652.000000	88.590090  
2651.000000	88.577553  
2650.000000	88.576524  
2649.000000	88.585270  
2648.000000	88.594235  
2647.000000	88.590794  
2646.000000	88.568741  
2645.000000	88.532624  
2644.000000	88.491520  
2643.000000	88.449537  
2642.000000	88.403361  
2641.000000	88.346777  
2640.000000	88.274655  
2639.000000	88.183956  
2638.000000	88.074882  
2637.000000	87.951651  
2636.000000	87.819307  
2635.000000	87.678786  
2634.000000	87.527044  
2633.000000	87.362580  
2632.000000	87.189220  
2631.000000	87.014198  
2630.000000	86.843969  
2629.000000	86.681653  
2628.000000	86.526801  
2627.000000	86.377540  
2626.000000	86.233969  
2625.000000	86.098440  
2624.000000	85.971152  
2623.000000	85.847493  
2622.000000	85.722820  
2621.000000	85.598530  
2620.000000	85.479793  
2619.000000	85.368068  
2618.000000	85.259987  
2617.000000	85.153704  
2616.000000	85.051734  
2615.000000	84.955930  
2614.000000	84.863308  
2613.000000	84.768977  
2612.000000	84.670662  
2611.000000	84.568671  
2610.000000	84.464280  
2609.000000	84.360622  
2608.000000	84.262877  
2607.000000	84.174551  
2606.000000	84.094595  
2605.000000	84.020910  
2604.000000	83.956260  
2603.000000	83.907691  
2602.000000	83.878869  
2601.000000	83.864556  
2600.000000	83.854309  
2599.000000	83.841425  
2598.000000	83.827386  
2597.000000	83.818382  
2596.000000	83.819793  
2595.000000	83.834672  
2594.000000	83.865169  
2593.000000	83.912893  
2592.000000	83.978561  
2591.000000	84.063083  
2590.000000	84.167793  
2589.000000	84.291391  
2588.000000	84.428488  
2587.000000	84.575022  
2586.000000	84.734108  
2585.000000	84.911498  
2584.000000	85.104815  
2583.000000	85.302688  
2582.000000	85.496307  
2581.000000	85.686147  
2580.000000	85.873965  
2579.000000	86.054091  
2578.000000	86.219287  
2577.000000	86.372322  
2576.000000	86.524401  
2575.000000	86.681694  
2574.000000	86.838495  
2573.000000	86.984132  
2572.000000	87.112070  
2571.000000	87.221752  
2570.000000	87.316787  
2569.000000	87.404158  
2568.000000	87.492081  
2567.000000	87.585576  
2566.000000	87.684427  
2565.000000	87.785162  
2564.000000	87.883017  
2563.000000	87.972971  
2562.000000	88.053332  
2561.000000	88.129962  
2560.000000	88.213735  
2559.000000	88.311239  
2558.000000	88.418853  
2557.000000	88.526289  
2556.000000	88.624088  
2555.000000	88.708360  
2554.000000	88.782762  
2553.000000	88.858050  
2552.000000	88.945899  
2551.000000	89.048704  
2550.000000	89.155608  
2549.000000	89.250764  
2548.000000	89.325672  
2547.000000	89.382957  
2546.000000	89.429674  
2545.000000	89.469102  
2544.000000	89.499123  
2543.000000	89.517373  
2542.000000	89.526862  
2541.000000	89.535244  
2540.000000	89.547791  
2539.000000	89.562601  
2538.000000	89.574473  
2537.000000	89.581591  
2536.000000	89.584924  
2535.000000	89.582571  
2534.000000	89.570784  
2533.000000	89.552521  
2532.000000	89.539732  
2531.000000	89.542324  
2530.000000	89.556530  
2529.000000	89.568145  
2528.000000	89.567236  
2527.000000	89.556995  
2526.000000	89.547487  
2525.000000	89.542310  
2524.000000	89.532388  
2523.000000	89.503180  
2522.000000	89.448692  
2521.000000	89.378671  
2520.000000	89.311386  
2519.000000	89.259165  
2518.000000	89.221417  
2517.000000	89.190307  
2516.000000	89.159946  
2515.000000	89.128814  
2514.000000	89.096290  
2513.000000	89.061123  
2512.000000	89.024437  
2511.000000	88.991952  
2510.000000	88.970562  
2509.000000	88.962025  
2508.000000	88.961391  
2507.000000	88.963230  
2506.000000	88.969570  
2505.000000	88.990736  
2504.000000	89.037549  
2503.000000	89.111870  
2502.000000	89.203519  
2501.000000	89.296604  
2500.000000	89.382188  
2499.000000	89.467346  
2498.000000	89.569068  
2497.000000	89.694865  
2496.000000	89.830993  
2495.000000	89.955589  
2494.000000	90.063694  
2493.000000	90.172340  
2492.000000	90.297920  
2491.000000	90.434928  
2490.000000	90.562457  
2489.000000	90.667538  
2488.000000	90.755571  
2487.000000	90.839935  
2486.000000	90.928054  
2485.000000	91.017846  
2484.000000	91.102312  
2483.000000	91.175659  
2482.000000	91.237455  
2481.000000	91.291361  
2480.000000	91.338712  
2479.000000	91.375912  
2478.000000	91.401353  
2477.000000	91.421572  
2476.000000	91.444263  
2475.000000	91.466367  
2474.000000	91.476168  
2473.000000	91.468881  
2472.000000	91.454961  
2471.000000	91.451130  
2470.000000	91.467499  
2469.000000	91.504433  
2468.000000	91.556413  
2467.000000	91.615642  
2466.000000	91.675949  
2465.000000	91.737580  
2464.000000	91.806886  
2463.000000	91.888604  
2462.000000	91.979110  
2461.000000	92.068640  
2460.000000	92.149174  
2459.000000	92.219447  
2458.000000	92.284036  
2457.000000	92.348859  
2456.000000	92.416392  
2455.000000	92.483915  
2454.000000	92.546626  
2453.000000	92.602541  
2452.000000	92.654184  
2451.000000	92.706722  
2450.000000	92.765578  
2449.000000	92.833882  
2448.000000	92.909394  
2447.000000	92.984552  
2446.000000	93.051572  
2445.000000	93.106673  
2444.000000	93.148494  
2443.000000	93.176293  
2442.000000	93.193621  
2441.000000	93.210140  
2440.000000	93.233567  
2439.000000	93.261349  
2438.000000	93.286405  
2437.000000	93.309734  
2436.000000	93.339847  
2435.000000	93.379381  
2434.000000	93.419939  
2433.000000	93.452271  
2432.000000	93.475222  
2431.000000	93.492271  
2430.000000	93.505672  
2429.000000	93.517729  
2428.000000	93.532640  
2427.000000	93.552905  
2426.000000	93.577153  
2425.000000	93.603743  
2424.000000	93.632272  
2423.000000	93.659128  
2422.000000	93.676636  
2421.000000	93.680951  
2420.000000	93.678195  
2419.000000	93.680254  
2418.000000	93.697017  
2417.000000	93.733245  
2416.000000	93.787222  
2415.000000	93.849139  
2414.000000	93.905479  
2413.000000	93.949470  
2412.000000	93.985145  
2411.000000	94.019780  
2410.000000	94.057129  
2409.000000	94.100367  
2408.000000	94.154469  
2407.000000	94.218935  
2406.000000	94.282234  
2405.000000	94.330824  
2404.000000	94.362675  
2403.000000	94.386822  
2402.000000	94.411084  
2401.000000	94.435621  
2400.000000	94.457604  
2399.000000	94.476536  
2398.000000	94.493528  
2397.000000	94.508417  
2396.000000	94.518662  
2395.000000	94.519982  
2394.000000	94.509397  
2393.000000	94.490057  
2392.000000	94.471883  
2391.000000	94.464759  
2390.000000	94.471587  
2389.000000	94.489227  
2388.000000	94.513718  
2387.000000	94.541610  
2386.000000	94.568627  
2385.000000	94.591951  
2384.000000	94.614230  
2383.000000	94.641588  
2382.000000	94.676595  
2381.000000	94.716051  
2380.000000	94.756467  
2379.000000	94.797834  
2378.000000	94.839265  
2377.000000	94.873660  
2376.000000	94.892541  
2375.000000	94.897573  
2374.000000	94.903294  
2373.000000	94.924751  
2372.000000	94.961919  
2371.000000	95.000660  
2370.000000	95.030058  
2369.000000	95.052552  
2368.000000	95.071667  
2367.000000	95.079107  
2366.000000	95.067132  
2365.000000	95.048408  
2364.000000	95.047643  
2363.000000	95.075740  
2362.000000	95.120528  
2361.000000	95.166550  
2360.000000	95.210730  
2359.000000	95.247525  
2358.000000	95.269037  
2357.000000	95.282140  
2356.000000	95.306789  
2355.000000	95.358009  
2354.000000	95.427912  
2353.000000	95.491738  
2352.000000	95.519247  
2351.000000	95.498909  
2350.000000	95.454848  
2349.000000	95.422750  
2348.000000	95.424014  
2347.000000	95.448020  
2346.000000	95.465624  
2345.000000	95.463027  
2344.000000	95.450215  
2343.000000	95.450216  
2342.000000	95.467485  
2341.000000	95.492215  
2340.000000	95.514619  
2339.000000	95.534334  
2338.000000	95.559803  
2337.000000	95.593026  
2336.000000	95.625189  
2335.000000	95.644897  
2334.000000	95.655296  
2333.000000	95.667809  
2332.000000	95.687404  
2331.000000	95.701763  
2330.000000	95.701750  
2329.000000	95.677779  
2328.000000	95.628151  
2327.000000	95.552484  
2326.000000	95.468522  
2325.000000	95.408757  
2324.000000	95.394634  
2323.000000	95.419258  
2322.000000	95.452901  
2321.000000	95.480795  
2320.000000	95.510169  
2319.000000	95.547405  
2318.000000	95.585101  
2317.000000	95.612112  
2316.000000	95.631262  
2315.000000	95.647068  
2314.000000	95.659111  
2313.000000	95.656561  
2312.000000	95.634221  
2311.000000	95.593800  
2310.000000	95.549850  
2309.000000	95.518313  
2308.000000	95.507833  
2307.000000	95.505810  
2306.000000	95.489643  
2305.000000	95.445830  
2304.000000	95.384027  
2303.000000	95.323268  
2302.000000	95.275868  
2301.000000	95.240192  
2300.000000	95.211029  
2299.000000	95.183685  
2298.000000	95.156697  
2297.000000	95.129518  
2296.000000	95.105866  
2295.000000	95.091030  
2294.000000	95.088867  
2293.000000	95.097312  
2292.000000	95.110334  
2291.000000	95.123659  
2290.000000	95.139455  
2289.000000	95.163747  
2288.000000	95.199024  
2287.000000	95.242963  
2286.000000	95.294077  
2285.000000	95.354822  
2284.000000	95.425481  
2283.000000	95.500452  
2282.000000	95.573495  
2281.000000	95.642393  
2280.000000	95.703085  
2279.000000	95.747208  
2278.000000	95.774729  
2277.000000	95.802911  
2276.000000	95.849144  
2275.000000	95.907379  
2274.000000	95.956359  
2273.000000	95.988825  
2272.000000	96.017224  
2271.000000	96.049544  
2270.000000	96.078279  
2269.000000	96.097839  
2268.000000	96.114649  
2267.000000	96.130717  
2266.000000	96.133338  
2265.000000	96.113515  
2264.000000	96.082742  
2263.000000	96.057463  
2262.000000	96.035355  
2261.000000	95.999945  
2260.000000	95.944881  
2259.000000	95.885233  
2258.000000	95.845840  
2257.000000	95.841790  
2256.000000	95.863963  
2255.000000	95.880941  
2254.000000	95.863013  
2253.000000	95.809319  
2252.000000	95.746690  
2251.000000	95.700963  
2250.000000	95.678280  
2249.000000	95.673030  
2248.000000	95.681463  
2247.000000	95.703253  
2246.000000	95.740039  
2245.000000	95.794863  
2244.000000	95.863372  
2243.000000	95.926616  
2242.000000	95.968603  
2241.000000	96.003603  
2240.000000	96.066875  
2239.000000	96.169929  
2238.000000	96.281788  
2237.000000	96.363607  
2236.000000	96.405399  
2235.000000	96.419086  
2234.000000	96.417148  
2233.000000	96.416507  
2232.000000	96.443843  
2231.000000	96.510443  
2230.000000	96.588804  
2229.000000	96.635841  
2228.000000	96.638250  
2227.000000	96.620075  
2226.000000	96.609974  
2225.000000	96.616892  
2224.000000	96.634916  
2223.000000	96.656996  
2222.000000	96.680659  
2221.000000	96.705883  
2220.000000	96.727273  
2219.000000	96.730300  
2218.000000	96.706863  
2217.000000	96.676265  
2216.000000	96.672955  
2215.000000	96.705207  
2214.000000	96.744192  
2213.000000	96.765493  
2212.000000	96.781856  
2211.000000	96.816883  
2210.000000	96.864045  
2209.000000	96.895798  
2208.000000	96.903064  
2207.000000	96.901865  
2206.000000	96.906245  
2205.000000	96.916885  
2204.000000	96.934212  
2203.000000	96.962676  
2202.000000	96.999713  
2201.000000	97.033647  
2200.000000	97.053627  
2199.000000	97.053468  
2198.000000	97.029960  
2197.000000	96.987014  
2196.000000	96.936057  
2195.000000	96.883884  
2194.000000	96.828195  
2193.000000	96.773315  
2192.000000	96.738832  
2191.000000	96.740593  
2190.000000	96.771886  
2189.000000	96.812375  
2188.000000	96.843984  
2187.000000	96.848989  
2186.000000	96.811899  
2185.000000	96.744490  
2184.000000	96.694460  
2183.000000	96.701624  
2182.000000	96.750296  
2181.000000	96.787507  
2180.000000	96.785981  
2179.000000	96.767469  
2178.000000	96.764851  
2177.000000	96.780661  
2176.000000	96.785525  
2175.000000	96.747103  
2174.000000	96.659740  
2173.000000	96.552028  
2172.000000	96.463470  
2171.000000	96.410515  
2170.000000	96.379496  
2169.000000	96.349573  
2168.000000	96.308090  
2167.000000	96.241422  
2166.000000	96.133725  
2165.000000	95.992836  
2164.000000	95.865046  
2163.000000	95.809371  
2162.000000	95.866475  
2161.000000	96.051157  
2160.000000	96.340292  
2159.000000	96.649019  
2158.000000	96.857704  
2157.000000	96.904694  
2156.000000	96.834456  
2155.000000	96.737378  
2154.000000	96.668601  
2153.000000	96.630082  
2152.000000	96.601086  
2151.000000	96.567817  
2150.000000	96.534919  
2149.000000	96.521612  
2148.000000	96.539278  
2147.000000	96.567647  
2146.000000	96.566755  
2145.000000	96.519133  
2144.000000	96.444759  
2143.000000	96.366895  
2142.000000	96.282803  
2141.000000	96.179570  
2140.000000	96.060317  
2139.000000	95.940370  
2138.000000	95.832564  
2137.000000	95.749652  
2136.000000	95.705105  
2135.000000	95.693556  
2134.000000	95.679945  
2133.000000	95.623886  
2132.000000	95.510064  
2131.000000	95.347249  
2130.000000	95.150890  
2129.000000	94.939329  
2128.000000	94.735019  
2127.000000	94.552552  
2126.000000	94.387568  
2125.000000	94.225819  
2124.000000	94.059123  
2123.000000	93.885906  
2122.000000	93.704122  
2121.000000	93.515800  
2120.000000	93.334595  
2119.000000	93.175997  
2118.000000	93.039569  
2117.000000	92.910837  
2116.000000	92.783293  
2115.000000	92.670079  
2114.000000	92.588765  
2113.000000	92.540577  
2112.000000	92.511883  
2111.000000	92.493713  
2110.000000	92.490926  
2109.000000	92.509912  
2108.000000	92.545617  
2107.000000	92.588383  
2106.000000	92.639602  
2105.000000	92.710452  
2104.000000	92.803571  
2103.000000	92.905285  
2102.000000	93.001743  
2101.000000	93.096059  
2100.000000	93.201740  
2099.000000	93.323706  
2098.000000	93.455456  
2097.000000	93.592504  
2096.000000	93.736206  
2095.000000	93.881498  
2094.000000	94.012122  
2093.000000	94.115146  
2092.000000	94.193536  
2091.000000	94.258622  
2090.000000	94.315987  
2089.000000	94.364133  
2088.000000	94.402198  
2087.000000	94.433054  
2086.000000	94.461122  
2085.000000	94.490805  
2084.000000	94.524589  
2083.000000	94.560165  
2082.000000	94.591698  
2081.000000	94.614929  
2080.000000	94.629109  
2079.000000	94.636058  
2078.000000	94.642590  
2077.000000	94.660936  
2076.000000	94.697745  
2075.000000	94.743991  
2074.000000	94.785730  
2073.000000	94.824848  
2072.000000	94.878228  
2071.000000	94.954457  
2070.000000	95.042662  
2069.000000	95.126554  
2068.000000	95.199080  
2067.000000	95.260878  
2066.000000	95.316171  
2065.000000	95.373791  
2064.000000	95.440165  
2063.000000	95.507866  
2062.000000	95.562984  
2061.000000	95.604783  
2060.000000	95.643760  
2059.000000	95.680612  
2058.000000	95.707390  
2057.000000	95.731793  
2056.000000	95.773817  
2055.000000	95.827442  
2054.000000	95.852478  
2053.000000	95.825168  
2052.000000	95.778364  
2051.000000	95.771381  
2050.000000	95.832522  
2049.000000	95.942677  
2048.000000	96.062644  
2047.000000	96.160062  
2046.000000	96.219184  
2045.000000	96.246695  
2044.000000	96.263174  
2043.000000	96.273882  
2042.000000	96.261247  
2041.000000	96.220183  
2040.000000	96.178638  
2039.000000	96.160373  
2038.000000	96.150278  
2037.000000	96.124213  
2036.000000	96.095632  
2035.000000	96.101838  
2034.000000	96.154911  
2033.000000	96.233433  
2032.000000	96.310523  
2031.000000	96.363151  
2030.000000	96.370790  
2029.000000	96.341713  
2028.000000	96.329298  
2027.000000	96.383745  
2026.000000	96.491039  
2025.000000	96.588660  
2024.000000	96.641721  
2023.000000	96.676395  
2022.000000	96.738386  
2021.000000	96.844486  
2020.000000	96.976084  
2019.000000	97.098341  
2018.000000	97.180176  
2017.000000	97.212238  
2016.000000	97.210854  
2015.000000	97.197637  
2014.000000	97.183724  
2013.000000	97.178991  
2012.000000	97.196893  
2011.000000	97.237379  
2010.000000	97.284659  
2009.000000	97.338512  
2008.000000	97.426910  
2007.000000	97.561688  
2006.000000	97.698679  
2005.000000	97.772327  
2004.000000	97.762034  
2003.000000	97.700147  
2002.000000	97.628906  
2001.000000	97.573529  
2000.000000	97.543547  
1999.000000	97.533334  
1998.000000	97.521181  
1997.000000	97.487333  
1996.000000	97.437191  
1995.000000	97.399143  
1994.000000	97.402227  
1993.000000	97.457914  
1992.000000	97.549633  
1991.000000	97.633799  
1990.000000	97.664415  
1989.000000	97.627927  
1988.000000	97.550483  
1987.000000	97.468123  
1986.000000	97.399329  
1985.000000	97.347087  
1984.000000	97.308355  
1983.000000	97.273510  
1982.000000	97.236706  
1981.000000	97.218899  
1980.000000	97.260864  
1979.000000	97.375589  
1978.000000	97.522687  
1977.000000	97.651241  
1976.000000	97.750092  
1975.000000	97.831864  
1974.000000	97.893835  
1973.000000	97.923906  
1972.000000	97.923256  
1971.000000	97.898171  
1970.000000	97.848084  
1969.000000	97.782326  
1968.000000	97.728607  
1967.000000	97.702988  
1966.000000	97.690161  
1965.000000	97.674509  
1964.000000	97.670909  
1963.000000	97.703442  
1962.000000	97.769609  
1961.000000	97.843030  
1960.000000	97.900331  
1959.000000	97.931477  
1958.000000	97.937567  
1957.000000	97.933892  
1956.000000	97.941028  
1955.000000	97.959413  
1954.000000	97.965375  
1953.000000	97.942909  
1952.000000	97.904715  
1951.000000	97.871927  
1950.000000	97.851195  
1949.000000	97.841346  
1948.000000	97.844169  
1947.000000	97.855265  
1946.000000	97.861051  
1945.000000	97.858712  
1944.000000	97.863172  
1943.000000	97.880508  
1942.000000	97.892132  
1941.000000	97.884138  
1940.000000	97.873534  
1939.000000	97.885938  
1938.000000	97.924446  
1937.000000	97.973948  
1936.000000	98.022541  
1935.000000	98.063242  
1934.000000	98.085729  
1933.000000	98.085494  
1932.000000	98.074745  
1931.000000	98.070047  
1930.000000	98.076128  
1929.000000	98.089843  
1928.000000	98.111188  
1927.000000	98.139071  
1926.000000	98.165147  
1925.000000	98.182348  
1924.000000	98.189652  
1923.000000	98.184710  
1922.000000	98.163610  
1921.000000	98.136497  
1920.000000	98.127649  
1919.000000	98.148969  
1918.000000	98.181644  
1917.000000	98.198168  
1916.000000	98.194934  
1915.000000	98.185209  
1914.000000	98.175089  
1913.000000	98.163864  
1912.000000	98.154718  
1911.000000	98.150504  
1910.000000	98.145960  
1909.000000	98.136214  
1908.000000	98.127591  
1907.000000	98.128326  
1906.000000	98.137183  
1905.000000	98.151211  
1904.000000	98.172542  
1903.000000	98.198596  
1902.000000	98.212188  
1901.000000	98.195090  
1900.000000	98.148672  
1899.000000	98.091998  
1898.000000	98.046843  
1897.000000	98.032211  
1896.000000	98.058946  
1895.000000	98.117222  
1894.000000	98.176162  
1893.000000	98.209503  
1892.000000	98.217772  
1891.000000	98.218705  
1890.000000	98.224658  
1889.000000	98.235860  
1888.000000	98.248420  
1887.000000	98.259668  
1886.000000	98.269807  
1885.000000	98.284707  
1884.000000	98.310387  
1883.000000	98.340547  
1882.000000	98.358856  
1881.000000	98.358526  
1880.000000	98.350517  
1879.000000	98.346054  
1878.000000	98.343339  
1877.000000	98.339232  
1876.000000	98.339120  
1875.000000	98.346325  
1874.000000	98.354787  
1873.000000	98.360522  
1872.000000	98.368587  
1871.000000	98.380095  
1870.000000	98.383852  
1869.000000	98.373161  
1868.000000	98.360690  
1867.000000	98.359533  
1866.000000	98.364138  
1865.000000	98.365100  
1864.000000	98.364908  
1863.000000	98.366797  
1862.000000	98.361960  
1861.000000	98.341802  
1860.000000	98.314136  
1859.000000	98.293576  
1858.000000	98.283805  
1857.000000	98.280676  
1856.000000	98.282705  
1855.000000	98.286600  
1854.000000	98.282200  
1853.000000	98.264477  
1852.000000	98.243478  
1851.000000	98.229960  
1850.000000	98.218880  
1849.000000	98.202754  
1848.000000	98.188651  
1847.000000	98.188604  
1846.000000	98.200138  
1845.000000	98.209304  
1844.000000	98.208506  
1843.000000	98.201017  
1842.000000	98.190073  
1841.000000	98.177290  
1840.000000	98.170163  
1839.000000	98.176687  
1838.000000	98.195043  
1837.000000	98.217467  
1836.000000	98.239347  
1835.000000	98.258958  
1834.000000	98.273518  
1833.000000	98.284156  
1832.000000	98.298289  
1831.000000	98.318426  
1830.000000	98.335262  
1829.000000	98.344466  
1828.000000	98.356106  
1827.000000	98.376231  
1826.000000	98.396195  
1825.000000	98.406586  
1824.000000	98.410022  
1823.000000	98.411791  
1822.000000	98.410373  
1821.000000	98.409108  
1820.000000	98.422456  
1819.000000	98.456054  
1818.000000	98.491872  
1817.000000	98.506712  
1816.000000	98.497306  
1815.000000	98.476483  
1814.000000	98.452723  
1813.000000	98.429050  
1812.000000	98.412056  
1811.000000	98.404688  
1810.000000	98.397654  
1809.000000	98.380145  
1808.000000	98.356003  
1807.000000	98.338020  
1806.000000	98.330151  
1805.000000	98.325473  
1804.000000	98.317341  
1803.000000	98.305060  
1802.000000	98.292305  
1801.000000	98.287522  
1800.000000	98.298542  
1799.000000	98.316855  
1798.000000	98.321389  
1797.000000	98.302600  
1796.000000	98.275022  
1795.000000	98.258114  
1794.000000	98.254059  
1793.000000	98.252346  
1792.000000	98.248398  
1791.000000	98.243896  
1790.000000	98.235666  
1789.000000	98.219669  
1788.000000	98.202139  
1787.000000	98.193062  
1786.000000	98.193907  
1785.000000	98.199507  
1784.000000	98.206957  
1783.000000	98.213124  
1782.000000	98.208400  
1781.000000	98.187731  
1780.000000	98.163094  
1779.000000	98.146197  
1778.000000	98.132435  
1777.000000	98.111164  
1776.000000	98.083262  
1775.000000	98.054091  
1774.000000	98.020024  
1773.000000	97.979222  
1772.000000	97.945772  
1771.000000	97.930023  
1770.000000	97.916716  
1769.000000	97.886402  
1768.000000	97.841790  
1767.000000	97.797585  
1766.000000	97.756136  
1765.000000	97.710219  
1764.000000	97.660417  
1763.000000	97.613790  
1762.000000	97.571147  
1761.000000	97.529723  
1760.000000	97.493583  
1759.000000	97.462800  
1758.000000	97.425605  
1757.000000	97.372155  
1756.000000	97.313891  
1755.000000	97.266967  
1754.000000	97.227981  
1753.000000	97.187406  
1752.000000	97.152399  
1751.000000	97.136190  
1750.000000	97.131309  
1749.000000	97.119782  
1748.000000	97.100923  
1747.000000	97.087106  
1746.000000	97.080512  
1745.000000	97.079763  
1744.000000	97.095140  
1743.000000	97.135248  
1742.000000	97.189552  
1741.000000	97.240616  
1740.000000	97.288126  
1739.000000	97.343768  
1738.000000	97.410106  
1737.000000	97.484960  
1736.000000	97.585433  
1735.000000	97.740671  
1734.000000	97.932631  
1733.000000	98.094526  
1732.000000	98.206577  
1731.000000	98.296459  
1730.000000	98.387012  
1729.000000	98.485346  
1728.000000	98.595553  
1727.000000	98.720493  
1726.000000	98.852195  
1725.000000	98.974742  
1724.000000	99.073124  
1723.000000	99.135675  
1722.000000	99.158221  
1721.000000	99.148505  
1720.000000	99.124325  
1719.000000	99.097277  
1718.000000	99.058650  
1717.000000	98.998471  
1716.000000	98.932438  
1715.000000	98.878146  
1714.000000	98.831431  
1713.000000	98.783453  
1712.000000	98.737244  
1711.000000	98.698938  
1710.000000	98.663775  
1709.000000	98.624196  
1708.000000	98.584685  
1707.000000	98.551965  
1706.000000	98.518710  
1705.000000	98.475865  
1704.000000	98.430970  
1703.000000	98.393972  
1702.000000	98.360407  
1701.000000	98.324688  
1700.000000	98.291994  
1699.000000	98.268167  
1698.000000	98.242808  
1697.000000	98.202321  
1696.000000	98.157714  
1695.000000	98.126290  
1694.000000	98.101693  
1693.000000	98.068206  
1692.000000	98.027761  
1691.000000	97.992317  
1690.000000	97.960989  
1689.000000	97.922284  
1688.000000	97.878073  
1687.000000	97.839337  
1686.000000	97.808341  
1685.000000	97.782419  
1684.000000	97.762005  
1683.000000	97.747417  
1682.000000	97.721776  
1681.000000	97.668196  
1680.000000	97.600894  
1679.000000	97.541710  
1678.000000	97.489536  
1677.000000	97.431384  
1676.000000	97.372904  
1675.000000	97.330247  
1674.000000	97.296770  
1673.000000	97.255401  
1672.000000	97.208464  
1671.000000	97.164957  
1670.000000	97.114781  
1669.000000	97.041761  
1668.000000	96.961246  
1667.000000	96.893986  
1666.000000	96.828528  
1665.000000	96.740172  
1664.000000	96.622182  
1663.000000	96.482931  
1662.000000	96.319855  
1661.000000	96.121926  
1660.000000	95.893458  
1659.000000	95.643268  
1658.000000	95.366678  
1657.000000	95.057492  
1656.000000	94.714926  
1655.000000	94.310382  
1654.000000	93.753896  
1653.000000	93.030887  
1652.000000	92.348423  
1651.000000	91.833075  
1650.000000	91.396595  
1649.000000	90.938242  
1648.000000	90.445901  
1647.000000	89.997891  
1646.000000	89.661025  
1645.000000	89.418919  
1644.000000	89.238122  
1643.000000	89.105352  
1642.000000	88.987225  
1641.000000	88.833420  
1640.000000	88.629883  
1639.000000	88.393738  
1638.000000	88.104509  
1637.000000	87.682564  
1636.000000	87.081948  
1635.000000	86.380187  
1634.000000	85.661921  
1633.000000	84.907106  
1632.000000	84.075977  
1631.000000	83.165075  
1630.000000	82.159587  
1629.000000	81.022820  
1628.000000	79.774014  
1627.000000	78.505165  
1626.000000	77.255279  
1625.000000	75.955196  
1624.000000	74.560894  
1623.000000	73.181914  
1622.000000	71.977829  
1621.000000	70.975228  
1620.000000	70.114029  
1619.000000	69.368926  
1618.000000	68.746260  
1617.000000	68.234749  
1616.000000	67.820066  
1615.000000	67.505914  
1614.000000	67.274528  
1613.000000	67.099880  
1612.000000	67.014783  
1611.000000	67.102237  
1610.000000	67.390578  
1609.000000	67.804413  
1608.000000	68.242786  
1607.000000	68.636462  
1606.000000	68.917831  
1605.000000	69.014492  
1604.000000	68.900425  
1603.000000	68.606235  
1602.000000	68.163622  
1601.000000	67.576906  
1600.000000	66.866391  
1599.000000	66.091340  
1598.000000	65.299439  
1597.000000	64.494918  
1596.000000	63.685596  
1595.000000	62.914026  
1594.000000	62.201789  
1593.000000	61.512139  
1592.000000	60.813809  
1591.000000	60.132618  
1590.000000	59.500631  
1589.000000	58.907339  
1588.000000	58.348748  
1587.000000	57.874395  
1586.000000	57.533217  
1585.000000	57.316750  
1584.000000	57.206980  
1583.000000	57.228395  
1582.000000	57.390645  
1581.000000	57.628757  
1580.000000	57.868793  
1579.000000	58.124313  
1578.000000	58.485552  
1577.000000	59.026098  
1576.000000	59.697493  
1575.000000	60.340013  
1574.000000	60.840396  
1573.000000	61.210340  
1572.000000	61.550239  
1571.000000	61.995401  
1570.000000	62.595047  
1569.000000	63.217230  
1568.000000	63.714229  
1567.000000	64.104131  
1566.000000	64.486189  
1565.000000	64.894534  
1564.000000	65.282300  
1563.000000	65.604146  
1562.000000	65.882335  
1561.000000	66.217360  
1560.000000	66.796212  
1559.000000	67.666267  
1558.000000	68.479455  
1557.000000	68.988693  
1556.000000	69.318484  
1555.000000	69.654588  
1554.000000	70.053194  
1553.000000	70.450394  
1552.000000	70.798677  
1551.000000	71.136203  
1550.000000	71.502050  
1549.000000	71.858944  
1548.000000	72.157848  
1547.000000	72.430332  
1546.000000	72.753042  
1545.000000	73.155254  
1544.000000	73.598097  
1543.000000	74.053827  
1542.000000	74.563101  
1541.000000	75.195214  
1540.000000	75.946950  
1539.000000	76.690332  
1538.000000	77.292938  
1537.000000	77.742918  
1536.000000	78.118039  
1535.000000	78.515645  
1534.000000	78.974864  
1533.000000	79.413205  
1532.000000	79.720780  
1531.000000	79.882578  
1530.000000	79.935497  
1529.000000	79.896568  
1528.000000	79.761877  
1527.000000	79.526116  
1526.000000	79.190514  
1525.000000	78.767466  
1524.000000	78.275369  
1523.000000	77.726070  
1522.000000	77.150438  
1521.000000	76.633748  
1520.000000	76.256572  
1519.000000	76.027051  
1518.000000	75.930799  
1517.000000	75.965195  
1516.000000	76.095230  
1515.000000	76.255746  
1514.000000	76.409741  
1513.000000	76.551178  
1512.000000	76.666052  
1511.000000	76.731362  
1510.000000	76.744480  
1509.000000	76.730298  
1508.000000	76.736104  
1507.000000	76.818929  
1506.000000	76.988931  
1505.000000	77.192554  
1504.000000	77.398213  
1503.000000	77.631227  
1502.000000	77.932231  
1501.000000	78.319576  
1500.000000	78.776742  
1499.000000	79.282786  
1498.000000	79.847422  
1497.000000	80.485169  
1496.000000	81.157557  
1495.000000	81.795157  
1494.000000	82.369110  
1493.000000	82.901550  
1492.000000	83.441589  
1491.000000	84.037087  
1490.000000	84.681013  
1489.000000	85.298209  
1488.000000	85.831903  
1487.000000	86.294799  
1486.000000	86.710573  
1485.000000	87.069069  
1484.000000	87.365061  
1483.000000	87.629736  
1482.000000	87.895610  
1481.000000	88.157663  
1480.000000	88.394036  
1479.000000	88.604552  
1478.000000	88.793301  
1477.000000	88.941418  
1476.000000	89.029038  
1475.000000	89.060220  
1474.000000	89.026209  
1473.000000	88.878125  
1472.000000	88.590233  
1471.000000	88.194268  
1470.000000	87.705585  
1469.000000	87.097489  
1468.000000	86.351416  
1467.000000	85.467503  
1466.000000	84.449291  
1465.000000	83.356176  
1464.000000	82.346470  
1463.000000	81.536800  
1462.000000	80.868535  
1461.000000	80.185035  
1460.000000	79.342722  
1459.000000	78.228081  
1458.000000	76.770752  
1457.000000	75.150247  
1456.000000	73.842690  
1455.000000	73.142395  
1454.000000	73.007636  
1453.000000	73.350852  
1452.000000	74.096773  
1451.000000	75.104271  
1450.000000	76.217906  
1449.000000	77.352672  
1448.000000	78.455445  
1447.000000	79.466563  
1446.000000	80.379284  
1445.000000	81.257159  
1444.000000	82.168698  
1443.000000	83.139961  
1442.000000	84.152071  
1441.000000	85.140569  
1440.000000	86.025573  
1439.000000	86.778992  
1438.000000	87.444185  
1437.000000	88.045837  
1436.000000	88.514218  
1435.000000	88.795543  
1434.000000	88.940633  
1433.000000	89.011903  
1432.000000	89.017332  
1431.000000	88.946422  
1430.000000	88.804897  
1429.000000	88.595214  
1428.000000	88.302867  
1427.000000	87.919633  
1426.000000	87.433455  
1425.000000	86.803533  
1424.000000	86.004226  
1423.000000	85.070879  
1422.000000	84.013932  
1421.000000	82.712955  
1420.000000	80.992129  
1419.000000	78.869490  
1418.000000	76.604800  
1417.000000	74.386210  
1416.000000	72.233033  
1415.000000	70.180270  
1414.000000	68.332276  
1413.000000	66.822896  
1412.000000	65.812843  
1411.000000	65.438782  
1410.000000	65.703648  
1409.000000	66.495599  
1408.000000	67.716996  
1407.000000	69.310815  
1406.000000	71.189416  
1405.000000	73.205373  
1404.000000	75.181172  
1403.000000	76.974269  
1402.000000	78.556768  
1401.000000	80.016125  
1400.000000	81.444151  
1399.000000	82.816838  
1398.000000	84.034318  
1397.000000	85.072123  
1396.000000	85.996802  
1395.000000	86.855290  
1394.000000	87.624297  
1393.000000	88.269659  
1392.000000	88.797922  
1391.000000	89.237385  
1390.000000	89.612833  
1389.000000	89.937820  
1388.000000	90.207922  
1387.000000	90.403989  
1386.000000	90.510861  
1385.000000	90.517944  
1384.000000	90.396355  
1383.000000	90.093316  
1382.000000	89.560101  
1381.000000	88.796090  
1380.000000	87.895254  
1379.000000	87.057498  
1378.000000	86.489203  
1377.000000	86.241981  
1376.000000	86.171496  
1375.000000	86.051191  
1374.000000	85.709486  
1373.000000	85.081093  
1372.000000	84.156568  
1371.000000	82.921032  
1370.000000	81.350485  
1369.000000	79.446884  
1368.000000	77.280602  
1367.000000	74.989680  
1366.000000	72.710985  
1365.000000	70.526044  
1364.000000	68.509105  
1363.000000	66.811079  
1362.000000	65.611402  
1361.000000	64.955035  
1360.000000	64.718510  
1359.000000	64.744459  
1358.000000	64.955409  
1357.000000	65.369726  
1356.000000	66.053469  
1355.000000	67.046674  
1354.000000	68.312104  
1353.000000	69.752250  
1352.000000	71.271324  
1351.000000	72.807806  
1350.000000	74.318151  
1349.000000	75.759896  
1348.000000	77.102274  
1347.000000	78.339482  
1346.000000	79.483883  
1345.000000	80.547055  
1344.000000	81.530415  
1343.000000	82.433003  
1342.000000	83.264347  
1341.000000	84.043556  
1340.000000	84.783121  
1339.000000	85.478318  
1338.000000	86.118563  
1337.000000	86.703334  
1336.000000	87.240483  
1335.000000	87.737157  
1334.000000	88.198865  
1333.000000	88.630523  
1332.000000	89.032175  
1331.000000	89.397877  
1330.000000	89.722823  
1329.000000	90.007025  
1328.000000	90.249274  
1327.000000	90.443412  
1326.000000	90.583043  
1325.000000	90.663400  
1324.000000	90.675501  
1323.000000	90.603295  
1322.000000	90.428110  
1321.000000	90.129902  
1320.000000	89.683937  
1319.000000	89.062598  
1318.000000	88.239157  
1317.000000	87.180855  
1316.000000	85.838634  
1315.000000	84.154409  
1314.000000	82.089371  
1313.000000	79.658804  
1312.000000	76.953776  
1311.000000	74.131813  
1310.000000	71.382699  
1309.000000	68.904971  
1308.000000	66.899975  
1307.000000	65.539645  
1306.000000	64.905013  
1305.000000	64.963235  
1304.000000	65.602829  
1303.000000	66.670489  
1302.000000	67.993421  
1301.000000	69.416840  
1300.000000	70.841851  
1299.000000	72.224282  
1298.000000	73.545956  
1297.000000	74.797704  
1296.000000	75.978750  
1295.000000	77.092839  
1294.000000	78.140625  
1293.000000	79.120474  
1292.000000	80.033866  
1291.000000	80.884455  
1290.000000	81.673603  
1289.000000	82.401042  
1288.000000	83.069292  
1287.000000	83.685245  
1286.000000	84.257554  
1285.000000	84.793063  
1284.000000	85.295404  
1283.000000	85.766823  
1282.000000	86.211032  
1281.000000	86.632964  
1280.000000	87.035715  
1279.000000	87.419460  
1278.000000	87.783569  
1277.000000	88.128072  
1276.000000	88.453580  
1275.000000	88.762778  
1274.000000	89.061545  
1273.000000	89.354899  
1272.000000	89.641389  
1271.000000	89.914486  
1270.000000	90.169277  
1269.000000	90.404582  
1268.000000	90.620059  
1267.000000	90.816621  
1266.000000	90.999340  
1265.000000	91.174445  
1264.000000	91.343025  
1263.000000	91.501944  
1262.000000	91.650253  
1261.000000	91.789985  
1260.000000	91.921592  
1259.000000	92.043753  
1258.000000	92.157081  
1257.000000	92.263397  
1256.000000	92.362030  
1255.000000	92.450643  
1254.000000	92.527254  
1253.000000	92.586659  
1252.000000	92.617250  
1251.000000	92.606681  
1250.000000	92.548071  
1249.000000	92.435139  
1248.000000	92.253970  
1247.000000	91.983673  
1246.000000	91.598196  
1245.000000	91.058179  
1244.000000	90.305264  
1243.000000	89.276742  
1242.000000	87.933885  
1241.000000	86.290619  
1240.000000	84.444403  
1239.000000	82.595064  
1238.000000	81.011235  
1237.000000	79.944867  
1236.000000	79.547345  
1235.000000	79.822249  
1234.000000	80.630315  
1233.000000	81.758143  
1232.000000	83.010969  
1231.000000	84.263420  
1230.000000	85.453707  
1229.000000	86.554402  
1228.000000	87.551021  
1227.000000	88.438806  
1226.000000	89.228049  
1225.000000	89.939202  
1224.000000	90.584282  
1223.000000	91.153572  
1222.000000	91.623855  
1221.000000	91.981362  
1220.000000	92.241508  
1219.000000	92.452242  
1218.000000	92.673863  
1217.000000	92.944529  
1216.000000	93.260585  
1215.000000	93.589425  
1214.000000	93.897993  
1213.000000	94.168798  
1212.000000	94.398551  
1211.000000	94.592937  
1210.000000	94.761246  
1209.000000	94.908794  
1208.000000	95.036935  
1207.000000	95.153892  
1206.000000	95.276330  
1205.000000	95.412198  
1204.000000	95.551715  
1203.000000	95.685536  
1202.000000	95.821162  
1201.000000	95.967276  
1200.000000	96.112038  
1199.000000	96.236602  
1198.000000	96.346055  
1197.000000	96.467472  
1196.000000	96.617079  
1195.000000	96.785025  
1194.000000	96.951834  
1193.000000	97.104330  
1192.000000	97.235850  
1191.000000	97.348211  
1190.000000	97.456295  
1189.000000	97.575139  
1188.000000	97.699114  
1187.000000	97.807389  
1186.000000	97.892544  
1185.000000	97.969906  
1184.000000	98.055681  
1183.000000	98.149858  
1182.000000	98.244100  
1181.000000	98.332664  
1180.000000	98.410201  
1179.000000	98.471057  
1178.000000	98.517471  
1177.000000	98.559511  
1176.000000	98.601741  
1175.000000	98.636267  
1174.000000	98.650556  
1173.000000	98.635007  
1172.000000	98.583132  
1171.000000	98.494398  
1170.000000	98.379103  
1169.000000	98.252155  
1168.000000	98.119374  
1167.000000	97.973435  
1166.000000	97.799919  
1165.000000	97.580766  
1164.000000	97.295245  
1163.000000	96.924972  
1162.000000	96.454465  
1161.000000	95.860406  
1160.000000	95.107924  
1159.000000	94.169403  
1158.000000	93.046243  
1157.000000	91.771533  
1156.000000	90.407506  
1155.000000	89.052897  
1154.000000	87.840606  
1153.000000	86.909350  
1152.000000	86.364525  
1151.000000	86.245985  
1150.000000	86.516277  
1149.000000	87.083726  
1148.000000	87.845574  
1147.000000	88.714370  
1146.000000	89.618705  
1145.000000	90.498988  
1144.000000	91.311465  
1143.000000	92.035141  
1142.000000	92.670881  
1141.000000	93.229639  
1140.000000	93.719983  
1139.000000	94.146027  
1138.000000	94.511532  
1137.000000	94.819895  
1136.000000	95.072643  
1135.000000	95.274076  
1134.000000	95.436030  
1133.000000	95.572887  
1132.000000	95.692536  
1131.000000	95.793414  
1130.000000	95.864723  
1129.000000	95.885480  
1128.000000	95.828981  
1127.000000	95.673536  
1126.000000	95.403745  
1125.000000	94.996098  
1124.000000	94.408371  
1123.000000	93.584810  
1122.000000	92.459509  
1121.000000	90.949256  
1120.000000	88.964602  
1119.000000	86.463176  
1118.000000	83.523890  
1117.000000	80.401270  
1116.000000	77.520371  
1115.000000	75.360635  
1114.000000	74.248208  
1113.000000	74.222692  
1112.000000	75.098489  
1111.000000	76.617109  
1110.000000	78.535106  
1109.000000	80.633453  
1108.000000	82.716475  
1107.000000	84.634241  
1106.000000	86.306152  
1105.000000	87.712546  
1104.000000	88.863148  
1103.000000	89.779982  
1102.000000	90.500615  
1101.000000	91.076681  
1100.000000	91.562582  
1099.000000	92.005964  
1098.000000	92.436070  
1097.000000	92.849949  
1096.000000	93.220214  
1095.000000	93.529837  
1094.000000	93.792779  
1093.000000	94.031551  
1092.000000	94.248610  
1091.000000	94.435858  
1090.000000	94.599276  
1089.000000	94.753135  
1088.000000	94.897588  
1087.000000	95.022584  
1086.000000	95.129584  
1085.000000	95.231133  
1084.000000	95.332691  
1083.000000	95.432146  
1082.000000	95.533726  
1081.000000	95.645050  
1080.000000	95.761740  
1079.000000	95.870010  
1078.000000	95.964295  
1077.000000	96.051007  
1076.000000	96.138193  
1075.000000	96.232415  
1074.000000	96.339073  
1073.000000	96.452481  
1072.000000	96.552372  
1071.000000	96.625309  
1070.000000	96.684679  
1069.000000	96.755260  
1068.000000	96.843598  
1067.000000	96.936985  
1066.000000	97.023283  
1065.000000	97.095250  
1064.000000	97.142856  
1063.000000	97.161958  
1062.000000	97.169291  
1061.000000	97.192638  
1060.000000	97.246780  
1059.000000	97.329048  
1058.000000	97.430544  
1057.000000	97.537213  
1056.000000	97.627549  
1055.000000	97.688592  
1054.000000	97.733442  
1053.000000	97.788651  
1052.000000	97.867052  
1051.000000	97.967089  
1050.000000	98.092231  
1049.000000	98.250932  
1048.000000	98.441902  
1047.000000	98.660237  
1046.000000	98.914057  
1045.000000	99.215402  
1044.000000	99.556474  
1043.000000	99.909275  
1042.000000	100.245118 
1041.000000	100.541132 
1040.000000	100.775179 
1039.000000	100.935327 
1038.000000	101.031181 
1037.000000	101.075823 
1036.000000	101.061121 
1035.000000	100.971473 
1034.000000	100.814760 
1033.000000	100.614338 
1032.000000	100.373851 
1031.000000	100.073548 
1030.000000	99.697605  
1029.000000	99.240114  
1028.000000	98.683086  
1027.000000	97.986954  
1026.000000	97.099180  
1025.000000	95.956603  
1024.000000	94.498143  
1023.000000	92.719659  
1022.000000	90.728375  
1021.000000	88.710506  
1020.000000	86.807402  
1019.000000	84.999329  
1018.000000	83.111457  
1017.000000	80.972238  
1016.000000	78.616828  
1015.000000	76.361206  
1014.000000	74.663701  
1013.000000	73.881217  
1012.000000	74.111517  
1011.000000	75.197858  
1010.000000	76.845971  
1009.000000	78.764161  
1008.000000	80.740981  
1007.000000	82.642100  
1006.000000	84.383327  
1005.000000	85.921456  
1004.000000	87.250163  
1003.000000	88.385713  
1002.000000	89.351411  
1001.000000	90.169498  
1000.000000	90.859680  
999.000000	 91.442726  
998.000000	 91.942761  
997.000000	 92.379885  
996.000000	 92.760559  
995.000000	 93.082588  
994.000000	 93.350538  
993.000000	 93.579351  
992.000000	 93.782819  
991.000000	 93.967167  
990.000000	 94.136761  
989.000000	 94.296295  
988.000000	 94.443857  
987.000000	 94.569979  
986.000000	 94.668192  
985.000000	 94.741592  
984.000000	 94.797797  
983.000000	 94.844570  
982.000000	 94.891845  
981.000000	 94.949652  
980.000000	 95.019876  
979.000000	 95.095470  
978.000000	 95.171054  
977.000000	 95.249799  
976.000000	 95.337489  
975.000000	 95.434260  
974.000000	 95.534567  
973.000000	 95.631479  
972.000000	 95.719043  
971.000000	 95.793615  
970.000000	 95.854117  
969.000000	 95.898701  
968.000000	 95.922852  
967.000000	 95.925193  
966.000000	 95.912647  
965.000000	 95.893469  
964.000000	 95.867306  
963.000000	 95.829994  
962.000000	 95.786726  
961.000000	 95.750504  
960.000000	 95.725328  
959.000000	 95.699123  
958.000000	 95.657589  
957.000000	 95.599435  
956.000000	 95.533672  
955.000000	 95.466263  
954.000000	 95.394346  
953.000000	 95.312357  
952.000000	 95.220900  
951.000000	 95.129344  
950.000000	 95.050275  
949.000000	 94.991402  
948.000000	 94.952502  
947.000000	 94.928660  
946.000000	 94.914345  
945.000000	 94.905453  
944.000000	 94.901562  
943.000000	 94.907189  
942.000000	 94.926599  
941.000000	 94.955329  
940.000000	 94.981007  
939.000000	 94.995771  
938.000000	 95.004429  
937.000000	 95.016172  
936.000000	 95.029963  
935.000000	 95.031149  
934.000000	 95.000969  
933.000000	 94.927402  
932.000000	 94.808288  
931.000000	 94.644194  
930.000000	 94.423953  
929.000000	 94.115319  
928.000000	 93.673664  
927.000000	 93.060242  
926.000000	 92.246197  
925.000000	 91.201609  
924.000000	 89.901155  
923.000000	 88.364257  
922.000000	 86.704027  
921.000000	 85.146658  
920.000000	 83.997496  
919.000000	 83.539652  
918.000000	 83.896372  
917.000000	 84.958894  
916.000000	 86.447734  
915.000000	 88.054023  
914.000000	 89.556230  
913.000000	 90.852342  
912.000000	 91.924151  
911.000000	 92.793162  
910.000000	 93.497623  
909.000000	 94.076540  
908.000000	 94.554377  
907.000000	 94.941252  
906.000000	 95.246746  
905.000000	 95.485190  
904.000000	 95.668657  
903.000000	 95.804918  
902.000000	 95.903481  
901.000000	 95.976905  
900.000000	 96.037002  
899.000000	 96.094604  
898.000000	 96.157876  
897.000000	 96.223388  
896.000000	 96.274935  
895.000000	 96.301771  
894.000000	 96.314443  
893.000000	 96.332593  
892.000000	 96.360990  
891.000000	 96.388477  
890.000000	 96.407585  
889.000000	 96.423405  
888.000000	 96.444073  
887.000000	 96.472945  
886.000000	 96.509722  
885.000000	 96.550460  
884.000000	 96.587649  
883.000000	 96.618937  
882.000000	 96.653885  
881.000000	 96.702731  
880.000000	 96.761086  
879.000000	 96.816069  
878.000000	 96.865056  
877.000000	 96.916395  
876.000000	 96.972128  
875.000000	 97.021547  
874.000000	 97.051765  
873.000000	 97.054198  
872.000000	 97.022269  
871.000000	 96.955399  
870.000000	 96.865955  
869.000000	 96.770951  
868.000000	 96.674941  
867.000000	 96.567497  
866.000000	 96.434741  
865.000000	 96.264669  
864.000000	 96.042530  
863.000000	 95.748687  
862.000000	 95.358210  
861.000000	 94.833298  
860.000000	 94.117204  
859.000000	 93.142355  
858.000000	 91.840377  
857.000000	 90.139527  
856.000000	 87.972796  
855.000000	 85.328422  
854.000000	 82.321954  
853.000000	 79.229154  
852.000000	 76.441493  
851.000000	 74.348627  
850.000000	 73.204328  
849.000000	 73.073580  
848.000000	 73.883718  
847.000000	 75.481485  
846.000000	 77.634802  
845.000000	 80.040210  
844.000000	 82.392506  
843.000000	 84.478624  
842.000000	 86.221862  
841.000000	 87.648127  
840.000000	 88.817301  
839.000000	 89.782382  
838.000000	 90.585590  
837.000000	 91.259976  
836.000000	 91.827195  
835.000000	 92.304622  
834.000000	 92.714076  
833.000000	 93.073272  
832.000000	 93.382967  
831.000000	 93.637350  
830.000000	 93.846705  
829.000000	 94.035899  
828.000000	 94.221044  
827.000000	 94.402450  
826.000000	 94.579546  
825.000000	 94.755021  
824.000000	 94.922796  
823.000000	 95.071138  
822.000000	 95.201056  
821.000000	 95.323571  
820.000000	 95.437896  
819.000000	 95.530506  
818.000000	 95.597284  
817.000000	 95.650307  
816.000000	 95.699324  
815.000000	 95.740287  
814.000000	 95.766970  
813.000000	 95.782833  
812.000000	 95.796382  
811.000000	 95.813577  
810.000000	 95.838941  
809.000000	 95.876856  
808.000000	 95.928494  
807.000000	 95.991708  
806.000000	 96.062695  
805.000000	 96.132500  
804.000000	 96.187674  
803.000000	 96.225697  
802.000000	 96.264861  
801.000000	 96.323259  
800.000000	 96.388838  
799.000000	 96.426691  
798.000000	 96.419443  
797.000000	 96.385623  
796.000000	 96.353148  
795.000000	 96.327977  
794.000000	 96.294205  
793.000000	 96.233601  
792.000000	 96.138880  
791.000000	 96.016186  
790.000000	 95.879000  
789.000000	 95.731923  
788.000000	 95.557886  
787.000000	 95.328876  
786.000000	 95.030580  
785.000000	 94.667470  
784.000000	 94.241191  
783.000000	 93.731687  
782.000000	 93.100301  
781.000000	 92.303184  
780.000000	 91.302603  
779.000000	 90.079192  
778.000000	 88.643493  
777.000000	 87.037356  
776.000000	 85.328995  
775.000000	 83.613895  
774.000000	 82.021634  
773.000000	 80.719642  
772.000000	 79.899079  
771.000000	 79.722728  
770.000000	 80.246483  
769.000000	 81.376259  
768.000000	 82.904175  
767.000000	 84.595268  
766.000000	 86.263656  
765.000000	 87.798226  
764.000000	 89.143296  
763.000000	 90.277034  
762.000000	 91.211556  
761.000000	 91.988822  
760.000000	 92.649551  
759.000000	 93.204098  
758.000000	 93.643092  
757.000000	 93.972873  
756.000000	 94.228321  
755.000000	 94.449357  
754.000000	 94.654374  
753.000000	 94.842992  
752.000000	 95.020750  
751.000000	 95.210048  
750.000000	 95.428084  
749.000000	 95.658371  
748.000000	 95.859146  
747.000000	 96.007281  
746.000000	 96.123576  
745.000000	 96.244486  
744.000000	 96.378637  
743.000000	 96.505198  
742.000000	 96.607353  
741.000000	 96.689353  
740.000000	 96.763112  
739.000000	 96.835829  
738.000000	 96.911094  
737.000000	 96.986232  
736.000000	 97.049194  
735.000000	 97.095827  
734.000000	 97.149859  
733.000000	 97.242721  
732.000000	 97.366114  
731.000000	 97.466821  
730.000000	 97.503228  
729.000000	 97.491372  
728.000000	 97.482742  
727.000000	 97.510804  
726.000000	 97.573023  
725.000000	 97.652072  
724.000000	 97.731906  
723.000000	 97.795270  
722.000000	 97.825770  
721.000000	 97.821789  
720.000000	 97.800569  
719.000000	 97.779528  
718.000000	 97.760950  
717.000000	 97.741936  
716.000000	 97.726301  
715.000000	 97.717020  
714.000000	 97.704091  
713.000000	 97.671612  
712.000000	 97.619451  
711.000000	 97.568501  
710.000000	 97.539800  
709.000000	 97.534717  
708.000000	 97.540660  
707.000000	 97.548078  
706.000000	 97.550688  
705.000000	 97.538242  
704.000000	 97.506197  
703.000000	 97.469524  
702.000000	 97.452235  
701.000000	 97.459565  
700.000000	 97.471509  
699.000000	 97.469177  
698.000000	 97.454293  
697.000000	 97.439385  
696.000000	 97.433265  
695.000000	 97.440632  
694.000000	 97.464703  
693.000000	 97.497352  
692.000000	 97.514092  
691.000000	 97.494908  
690.000000	 97.447486  
689.000000	 97.404972  
688.000000	 97.400434  
687.000000	 97.439420  
686.000000	 97.492743  
685.000000	 97.516800  
684.000000	 97.492021  
683.000000	 97.441579  
682.000000	 97.398484  
681.000000	 97.361919  
680.000000	 97.311174  
679.000000	 97.260435  
678.000000	 97.258032  
677.000000	 97.315055  
676.000000	 97.377384  
675.000000	 97.392118  
674.000000	 97.361609  
673.000000	 97.320457  
672.000000	 97.280217  
671.000000	 97.238953  
670.000000	 97.191671  
669.000000	 97.162771  
668.000000	 97.154012  
667.000000	 97.042470  
666.000000	 96.819332  
665.000000	 96.564961  
664.000000	 96.240477  
663.000000	 95.784553  
662.000000	 95.196654  
661.000000	 94.505863  
660.000000	 93.716358  
659.000000	 92.784256  
658.000000	 91.719530  
657.000000	 90.436510  
656.000000	 88.996553  
655.000000	 87.094657  
654.000000	 85.177432  
653.000000	 83.398083  
652.000000	 81.619909  
651.000000	 80.098614  
650.000000	 78.818392  

