PE IR                   SPECTRUM    ASCII       PEDS        1.60        
  -1
~SP.SP
18/04/18
12:50:18.00
18/04/18
12:50:18.00
Claudia

650.000000
16









SPECTRUM 100,CPU32 MAIN 00.02.8200 12-DECEMBER-2006 10:00:00
MIR TGS
MIR
OPTKBR
78890
0.200000

4.000000
STRONG
RATIO
SPECTRUM
MAGNITUDE
UNIVERSAL ATR
DOUBLE

COMBINED


0


#HDR
-1
-1
#GR
CM-1
%T
0.00002384185791015625
0.0
4000.000000
-1.000000
3351
8
98.136832
26.425214
#DATA
4000.000000	97.952210 
3999.000000	97.949289 
3998.000000	97.947823 
3997.000000	97.949081 
3996.000000	97.953309 
3995.000000	97.960032 
3994.000000	97.968920 
3993.000000	97.978367 
3992.000000	97.985247 
3991.000000	97.987098 
3990.000000	97.984597 
3989.000000	97.981094 
3988.000000	97.979584 
3987.000000	97.980546 
3986.000000	97.982419 
3985.000000	97.983334 
3984.000000	97.982362 
3983.000000	97.979781 
3982.000000	97.976955 
3981.000000	97.975874 
3980.000000	97.977952 
3979.000000	97.982697 
3978.000000	97.987453 
3977.000000	97.988762 
3976.000000	97.984818 
3975.000000	97.976936 
3974.000000	97.968617 
3973.000000	97.962974 
3972.000000	97.960852 
3971.000000	97.961078 
3970.000000	97.961594 
3969.000000	97.960711 
3968.000000	97.958415 
3967.000000	97.956617 
3966.000000	97.957592 
3965.000000	97.961561 
3964.000000	97.966079 
3963.000000	97.968480 
3962.000000	97.968879 
3961.000000	97.970022 
3960.000000	97.974095 
3959.000000	97.980721 
3958.000000	97.987694 
3957.000000	97.993105 
3956.000000	97.996811 
3955.000000	97.999952 
3954.000000	98.003874 
3953.000000	98.008956 
3952.000000	98.014285 
3951.000000	98.018262 
3950.000000	98.019224 
3949.000000	98.016815 
3948.000000	98.012981 
3947.000000	98.011305 
3946.000000	98.014362 
3945.000000	98.020958 
3944.000000	98.026351 
3943.000000	98.026252 
3942.000000	98.021563 
3941.000000	98.017553 
3940.000000	98.017743 
3939.000000	98.020398 
3938.000000	98.021109 
3937.000000	98.017916 
3936.000000	98.013467 
3935.000000	98.011488 
3934.000000	98.012504 
3933.000000	98.012910 
3932.000000	98.008724 
3931.000000	97.999535 
3930.000000	97.988619 
3929.000000	97.980838 
3928.000000	97.979482 
3927.000000	97.983718 
3926.000000	97.989008 
3925.000000	97.990238 
3924.000000	97.985850 
3923.000000	97.978622 
3922.000000	97.972253 
3921.000000	97.969619 
3920.000000	97.972741 
3919.000000	97.981933 
3918.000000	97.993985 
3917.000000	98.003481 
3916.000000	98.007853 
3915.000000	98.009546 
3914.000000	98.012059 
3913.000000	98.015973 
3912.000000	98.019370 
3911.000000	98.021441 
3910.000000	98.023271 
3909.000000	98.026030 
3908.000000	98.030647 
3907.000000	98.037335 
3906.000000	98.044657 
3905.000000	98.047916 
3904.000000	98.042560 
3903.000000	98.031244 
3902.000000	98.022773 
3901.000000	98.022851 
3900.000000	98.029577 
3899.000000	98.037300 
3898.000000	98.043068 
3897.000000	98.047252 
3896.000000	98.050097 
3895.000000	98.051968 
3894.000000	98.054288 
3893.000000	98.057252 
3892.000000	98.056982 
3891.000000	98.048831 
3890.000000	98.035093 
3889.000000	98.023555 
3888.000000	98.020927 
3887.000000	98.027439 
3886.000000	98.036754 
3885.000000	98.042334 
3884.000000	98.042950 
3883.000000	98.040622 
3882.000000	98.036969 
3881.000000	98.033124 
3880.000000	98.031479 
3879.000000	98.033153 
3878.000000	98.036801 
3877.000000	98.040048 
3876.000000	98.040884 
3875.000000	98.037826 
3874.000000	98.032429 
3873.000000	98.030311 
3872.000000	98.036052 
3871.000000	98.045803 
3870.000000	98.050133 
3869.000000	98.047653 
3868.000000	98.045202 
3867.000000	98.045998 
3866.000000	98.047346 
3865.000000	98.047056 
3864.000000	98.046653 
3863.000000	98.047719 
3862.000000	98.046809 
3861.000000	98.040386 
3860.000000	98.030417 
3859.000000	98.021751 
3858.000000	98.017088 
3857.000000	98.016210 
3856.000000	98.018258 
3855.000000	98.021839 
3854.000000	98.016867 
3853.000000	98.000586 
3852.000000	97.989052 
3851.000000	97.992872 
3850.000000	98.005523 
3849.000000	98.018572 
3848.000000	98.028406 
3847.000000	98.035953 
3846.000000	98.042032 
3845.000000	98.044586 
3844.000000	98.040968 
3843.000000	98.032421 
3842.000000	98.023510 
3841.000000	98.019312 
3840.000000	98.022626 
3839.000000	98.032051 
3838.000000	98.042838 
3837.000000	98.049716 
3836.000000	98.051128 
3835.000000	98.049759 
3834.000000	98.048425 
3833.000000	98.047814 
3832.000000	98.047389 
3831.000000	98.047226 
3830.000000	98.048109 
3829.000000	98.049529 
3828.000000	98.049178 
3827.000000	98.045920 
3826.000000	98.041400 
3825.000000	98.038536 
3824.000000	98.039099 
3823.000000	98.042686 
3822.000000	98.044532 
3821.000000	98.039896 
3820.000000	98.033442 
3819.000000	98.033320 
3818.000000	98.041128 
3817.000000	98.052460 
3816.000000	98.063410 
3815.000000	98.075022 
3814.000000	98.087821 
3813.000000	98.096903 
3812.000000	98.096070 
3811.000000	98.084503 
3810.000000	98.067422 
3809.000000	98.051323 
3808.000000	98.038224 
3807.000000	98.027273 
3806.000000	98.019014 
3805.000000	98.015119 
3804.000000	98.014800 
3803.000000	98.015541 
3802.000000	98.015036 
3801.000000	98.014988 
3800.000000	98.020364 
3799.000000	98.031105 
3798.000000	98.041977 
3797.000000	98.049191 
3796.000000	98.053502 
3795.000000	98.057733 
3794.000000	98.062543 
3793.000000	98.066965 
3792.000000	98.071340 
3791.000000	98.077084 
3790.000000	98.083415 
3789.000000	98.086880 
3788.000000	98.085378 
3787.000000	98.081128 
3786.000000	98.078338 
3785.000000	98.078531 
3784.000000	98.079243 
3783.000000	98.076964 
3782.000000	98.070148 
3781.000000	98.060093 
3780.000000	98.050078 
3779.000000	98.044832 
3778.000000	98.047895 
3777.000000	98.058439 
3776.000000	98.071413 
3775.000000	98.081194 
3774.000000	98.084785 
3773.000000	98.082516 
3772.000000	98.076583 
3771.000000	98.069317 
3770.000000	98.062565 
3769.000000	98.058291 
3768.000000	98.058380 
3767.000000	98.062369 
3766.000000	98.067550 
3765.000000	98.070556 
3764.000000	98.068748 
3763.000000	98.061223 
3762.000000	98.049131 
3761.000000	98.036428 
3760.000000	98.027600 
3759.000000	98.023294 
3758.000000	98.018496 
3757.000000	98.007948 
3756.000000	97.992659 
3755.000000	97.978380 
3754.000000	97.969303 
3753.000000	97.965218 
3752.000000	97.963151 
3751.000000	97.959666 
3750.000000	97.953778 
3749.000000	97.946478 
3748.000000	97.940530 
3747.000000	97.938402 
3746.000000	97.938125 
3745.000000	97.930909 
3744.000000	97.915485 
3743.000000	97.902306 
3742.000000	97.895642 
3741.000000	97.890379 
3740.000000	97.882312 
3739.000000	97.872406 
3738.000000	97.864521 
3737.000000	97.860074 
3736.000000	97.859013 
3735.000000	97.863520 
3734.000000	97.872537 
3733.000000	97.878280 
3732.000000	97.873481 
3731.000000	97.860124 
3730.000000	97.847219 
3729.000000	97.841409 
3728.000000	97.842754 
3727.000000	97.847345 
3726.000000	97.851598 
3725.000000	97.855142 
3724.000000	97.860898 
3723.000000	97.873131 
3722.000000	97.893506 
3721.000000	97.921331 
3720.000000	97.954374 
3719.000000	97.986357 
3718.000000	98.007352 
3717.000000	98.008483 
3716.000000	97.988961 
3715.000000	97.956715 
3714.000000	97.920171 
3713.000000	97.887391 
3712.000000	97.863650 
3711.000000	97.854299 
3710.000000	97.860789 
3709.000000	97.877966 
3708.000000	97.898722 
3707.000000	97.915701 
3706.000000	97.926998 
3705.000000	97.933073 
3704.000000	97.938179 
3703.000000	97.945974 
3702.000000	97.957884 
3701.000000	97.971111 
3700.000000	97.982447 
3699.000000	97.988539 
3698.000000	97.987641 
3697.000000	97.980498 
3696.000000	97.969496 
3695.000000	97.959082 
3694.000000	97.952527 
3693.000000	97.955528 
3692.000000	97.972189 
3691.000000	98.002060 
3690.000000	98.031646 
3689.000000	98.045335 
3688.000000	98.043696 
3687.000000	98.040095 
3686.000000	98.045160 
3685.000000	98.057712 
3684.000000	98.071857 
3683.000000	98.081752 
3682.000000	98.086731 
3681.000000	98.085482 
3680.000000	98.076084 
3679.000000	98.059243 
3678.000000	98.041756 
3677.000000	98.032909 
3676.000000	98.033162 
3675.000000	98.037867 
3674.000000	98.045995 
3673.000000	98.057972 
3672.000000	98.071563 
3671.000000	98.085499 
3670.000000	98.098025 
3669.000000	98.109534 
3668.000000	98.120517 
3667.000000	98.129094 
3666.000000	98.133809 
3665.000000	98.135860 
3664.000000	98.136832 
3663.000000	98.136651 
3662.000000	98.133864 
3661.000000	98.127896 
3660.000000	98.121588 
3659.000000	98.119211 
3658.000000	98.122164 
3657.000000	98.125597 
3656.000000	98.123408 
3655.000000	98.115775 
3654.000000	98.107391 
3653.000000	98.101814 
3652.000000	98.099748 
3651.000000	98.098943 
3650.000000	98.092983 
3649.000000	98.078163 
3648.000000	98.061514 
3647.000000	98.054186 
3646.000000	98.060199 
3645.000000	98.075029 
3644.000000	98.089227 
3643.000000	98.093626 
3642.000000	98.084581 
3641.000000	98.065075 
3640.000000	98.041930 
3639.000000	98.020718 
3638.000000	98.004488 
3637.000000	97.993883 
3636.000000	97.987055 
3635.000000	97.980679 
3634.000000	97.972992 
3633.000000	97.965309 
3632.000000	97.960092 
3631.000000	97.957297 
3630.000000	97.952391 
3629.000000	97.940936 
3628.000000	97.929099 
3627.000000	97.926585 
3626.000000	97.934023 
3625.000000	97.947347 
3624.000000	97.965263 
3623.000000	97.989597 
3622.000000	98.021007 
3621.000000	98.053933 
3620.000000	98.075943 
3619.000000	98.077886 
3618.000000	98.065443 
3617.000000	98.050945 
3616.000000	98.039722 
3615.000000	98.029444 
3614.000000	98.017088 
3613.000000	98.004990 
3612.000000	97.997895 
3611.000000	97.995416 
3610.000000	97.990239 
3609.000000	97.977791 
3608.000000	97.963449 
3607.000000	97.955549 
3606.000000	97.956130 
3605.000000	97.959266 
3604.000000	97.959238 
3603.000000	97.953878 
3602.000000	97.946451 
3601.000000	97.943618 
3600.000000	97.949912 
3599.000000	97.963850 
3598.000000	97.978909 
3597.000000	97.989169 
3596.000000	97.992344 
3595.000000	97.991210 
3594.000000	97.988669 
3593.000000	97.987931 
3592.000000	97.991614 
3591.000000	98.003140 
3590.000000	98.023598 
3589.000000	98.048591 
3588.000000	98.066685 
3587.000000	98.068143 
3586.000000	98.056060 
3585.000000	98.041456 
3584.000000	98.034117 
3583.000000	98.035850 
3582.000000	98.043267 
3581.000000	98.051207 
3580.000000	98.056013 
3579.000000	98.057233 
3578.000000	98.056245 
3577.000000	98.056631 
3576.000000	98.060430 
3575.000000	98.067728 
3574.000000	98.075059 
3573.000000	98.079586 
3572.000000	98.080908 
3571.000000	98.081745 
3570.000000	98.083871 
3569.000000	98.086322 
3568.000000	98.085684 
3567.000000	98.080702 
3566.000000	98.074649 
3565.000000	98.071840 
3564.000000	98.072406 
3563.000000	98.073004 
3562.000000	98.070748 
3561.000000	98.066781 
3560.000000	98.065331 
3559.000000	98.069262 
3558.000000	98.076817 
3557.000000	98.083735 
3556.000000	98.087311 
3555.000000	98.088360 
3554.000000	98.089598 
3553.000000	98.092494 
3552.000000	98.096118 
3551.000000	98.098384 
3550.000000	98.097745 
3549.000000	98.093955 
3548.000000	98.087934 
3547.000000	98.081041 
3546.000000	98.075391 
3545.000000	98.074195 
3544.000000	98.079981 
3543.000000	98.091163 
3542.000000	98.100961 
3541.000000	98.102303 
3540.000000	98.094579 
3539.000000	98.084624 
3538.000000	98.080460 
3537.000000	98.083930 
3536.000000	98.089845 
3535.000000	98.091492 
3534.000000	98.086671 
3533.000000	98.078895 
3532.000000	98.073649 
3531.000000	98.073714 
3530.000000	98.076967 
3529.000000	98.078618 
3528.000000	98.075640 
3527.000000	98.069065 
3526.000000	98.062506 
3525.000000	98.059387 
3524.000000	98.060911 
3523.000000	98.065453 
3522.000000	98.069744 
3521.000000	98.070992 
3520.000000	98.068300 
3519.000000	98.062113 
3518.000000	98.053820 
3517.000000	98.045991 
3516.000000	98.042006 
3515.000000	98.043975 
3514.000000	98.050643 
3513.000000	98.058022 
3512.000000	98.062297 
3511.000000	98.062214 
3510.000000	98.059387 
3509.000000	98.056737 
3508.000000	98.056264 
3507.000000	98.057388 
3506.000000	98.057399 
3505.000000	98.053302 
3504.000000	98.043995 
3503.000000	98.031190 
3502.000000	98.018620 
3501.000000	98.009978 
3500.000000	98.006518 
3499.000000	98.006361 
3498.000000	98.006604 
3497.000000	98.006728 
3496.000000	98.008717 
3495.000000	98.013191 
3494.000000	98.017100 
3493.000000	98.016907 
3492.000000	98.013352 
3491.000000	98.010889 
3490.000000	98.012450 
3489.000000	98.016242 
3488.000000	98.018221 
3487.000000	98.016517 
3486.000000	98.012628 
3485.000000	98.008886 
3484.000000	98.005923 
3483.000000	98.002519 
3482.000000	97.997172 
3481.000000	97.989537 
3480.000000	97.980689 
3479.000000	97.972502 
3478.000000	97.966678 
3477.000000	97.963844 
3476.000000	97.963108 
3475.000000	97.963037 
3474.000000	97.963202 
3473.000000	97.963808 
3472.000000	97.963563 
3471.000000	97.959592 
3470.000000	97.951034 
3469.000000	97.941748 
3468.000000	97.937049 
3467.000000	97.937649 
3466.000000	97.939036 
3465.000000	97.937600 
3464.000000	97.935416 
3463.000000	97.937592 
3462.000000	97.945684 
3461.000000	97.955165 
3460.000000	97.959339 
3459.000000	97.955309 
3458.000000	97.946624 
3457.000000	97.940134 
3456.000000	97.940297 
3455.000000	97.945759 
3454.000000	97.951547 
3453.000000	97.954255 
3452.000000	97.954434 
3451.000000	97.954656 
3450.000000	97.956135 
3449.000000	97.957850 
3448.000000	97.958424 
3447.000000	97.958447 
3446.000000	97.960366 
3445.000000	97.965655 
3444.000000	97.972363 
3443.000000	97.976135 
3442.000000	97.974150 
3441.000000	97.967743 
3440.000000	97.960952 
3439.000000	97.957121 
3438.000000	97.957155 
3437.000000	97.959695 
3436.000000	97.962298 
3435.000000	97.963180 
3434.000000	97.963074 
3433.000000	97.964872 
3432.000000	97.970078 
3431.000000	97.976038 
3430.000000	97.977653 
3429.000000	97.972144 
3428.000000	97.961606 
3427.000000	97.951318 
3426.000000	97.946256 
3425.000000	97.948465 
3424.000000	97.956194 
3423.000000	97.965208 
3422.000000	97.971905 
3421.000000	97.975366 
3420.000000	97.976337 
3419.000000	97.975437 
3418.000000	97.973797 
3417.000000	97.974132 
3416.000000	97.978129 
3415.000000	97.982604 
3414.000000	97.981194 
3413.000000	97.971595 
3412.000000	97.959574 
3411.000000	97.954051 
3410.000000	97.958788 
3409.000000	97.969715 
3408.000000	97.979352 
3407.000000	97.983020 
3406.000000	97.981733 
3405.000000	97.980062 
3404.000000	97.981296 
3403.000000	97.984427 
3402.000000	97.986299 
3401.000000	97.985887 
3400.000000	97.984661 
3399.000000	97.983077 
3398.000000	97.979392 
3397.000000	97.972955 
3396.000000	97.966405 
3395.000000	97.962902 
3394.000000	97.962549 
3393.000000	97.963078 
3392.000000	97.962981 
3391.000000	97.962457 
3390.000000	97.961888 
3389.000000	97.960757 
3388.000000	97.958313 
3387.000000	97.955070 
3386.000000	97.953856 
3385.000000	97.958290 
3384.000000	97.968583 
3383.000000	97.979136 
3382.000000	97.982685 
3381.000000	97.977423 
3380.000000	97.968331 
3379.000000	97.961547 
3378.000000	97.959337 
3377.000000	97.960719 
3376.000000	97.963679 
3375.000000	97.965230 
3374.000000	97.962277 
3373.000000	97.955219 
3372.000000	97.949253 
3371.000000	97.949560 
3370.000000	97.955464 
3369.000000	97.960734 
3368.000000	97.959388 
3367.000000	97.950448 
3366.000000	97.938173 
3365.000000	97.928836 
3364.000000	97.926617 
3363.000000	97.931486 
3362.000000	97.940696 
3361.000000	97.951557 
3360.000000	97.961413 
3359.000000	97.965843 
3358.000000	97.960353 
3357.000000	97.945700 
3356.000000	97.929495 
3355.000000	97.920212 
3354.000000	97.919906 
3353.000000	97.923793 
3352.000000	97.925623 
3351.000000	97.922486 
3350.000000	97.915891 
3349.000000	97.909905 
3348.000000	97.907883 
3347.000000	97.909689 
3346.000000	97.912359 
3345.000000	97.913619 
3344.000000	97.913732 
3343.000000	97.913647 
3342.000000	97.912670 
3341.000000	97.908932 
3340.000000	97.901209 
3339.000000	97.889753 
3338.000000	97.876257 
3337.000000	97.863174 
3336.000000	97.851765 
3335.000000	97.840703 
3334.000000	97.828394 
3333.000000	97.816726 
3332.000000	97.810151 
3331.000000	97.810023 
3330.000000	97.811941 
3329.000000	97.810068 
3328.000000	97.802479 
3327.000000	97.791087 
3326.000000	97.778413 
3325.000000	97.766245 
3324.000000	97.755770 
3323.000000	97.746746 
3322.000000	97.737240 
3321.000000	97.725870 
3320.000000	97.713636 
3319.000000	97.702201 
3318.000000	97.691148 
3317.000000	97.678433 
3316.000000	97.662975 
3315.000000	97.645546 
3314.000000	97.627413 
3313.000000	97.609161 
3312.000000	97.590655 
3311.000000	97.571445 
3310.000000	97.551171 
3309.000000	97.529498 
3308.000000	97.505211 
3307.000000	97.476141 
3306.000000	97.441660 
3305.000000	97.405093 
3304.000000	97.371614 
3303.000000	97.343184 
3302.000000	97.317381 
3301.000000	97.291516 
3300.000000	97.265508 
3299.000000	97.239643 
3298.000000	97.212293 
3297.000000	97.182251 
3296.000000	97.151786 
3295.000000	97.124909 
3294.000000	97.102886 
3293.000000	97.082962 
3292.000000	97.061310 
3291.000000	97.036402 
3290.000000	97.010072 
3289.000000	96.986172 
3288.000000	96.967665 
3287.000000	96.954173 
3286.000000	96.942448 
3285.000000	96.929279 
3284.000000	96.913255 
3283.000000	96.894165 
3282.000000	96.872507 
3281.000000	96.850098 
3280.000000	96.829673 
3279.000000	96.812806 
3278.000000	96.798975 
3277.000000	96.786749 
3276.000000	96.774664 
3275.000000	96.761067 
3274.000000	96.744953 
3273.000000	96.727391 
3272.000000	96.710405 
3271.000000	96.693969 
3270.000000	96.675751 
3269.000000	96.654278 
3268.000000	96.630669 
3267.000000	96.606958 
3266.000000	96.584592 
3265.000000	96.564796 
3264.000000	96.547849 
3263.000000	96.531277 
3262.000000	96.511250 
3261.000000	96.487015 
3260.000000	96.461818 
3259.000000	96.438302 
3258.000000	96.415345 
3257.000000	96.390748 
3256.000000	96.364679 
3255.000000	96.338501 
3254.000000	96.312275 
3253.000000	96.285619 
3252.000000	96.259751 
3251.000000	96.236589 
3250.000000	96.216376 
3249.000000	96.197541 
3248.000000	96.178087 
3247.000000	96.156120 
3246.000000	96.130093 
3245.000000	96.099853 
3244.000000	96.067053 
3243.000000	96.033968 
3242.000000	96.002350 
3241.000000	95.973058 
3240.000000	95.945233 
3239.000000	95.916011 
3238.000000	95.883039 
3237.000000	95.847544 
3236.000000	95.813053 
3235.000000	95.780908 
3234.000000	95.749219 
3233.000000	95.716243 
3232.000000	95.682119 
3231.000000	95.646848 
3230.000000	95.609500 
3229.000000	95.570692 
3228.000000	95.533277 
3227.000000	95.499077 
3226.000000	95.467014 
3225.000000	95.435477 
3224.000000	95.404095 
3223.000000	95.372036 
3222.000000	95.337306 
3221.000000	95.299721 
3220.000000	95.262394 
3219.000000	95.228072 
3218.000000	95.195434 
3217.000000	95.160694 
3216.000000	95.121596 
3215.000000	95.078622 
3214.000000	95.033906 
3213.000000	94.990430 
3212.000000	94.950907 
3211.000000	94.915840 
3210.000000	94.882998 
3209.000000	94.849311 
3208.000000	94.812498 
3207.000000	94.771032 
3206.000000	94.724319 
3205.000000	94.673333 
3204.000000	94.619325 
3203.000000	94.561632 
3202.000000	94.498560 
3201.000000	94.430795 
3200.000000	94.362004 
3199.000000	94.295724 
3198.000000	94.233209 
3197.000000	94.173666 
3196.000000	94.113972 
3195.000000	94.048674 
3194.000000	93.974011 
3193.000000	93.892610 
3192.000000	93.810817 
3191.000000	93.730587 
3190.000000	93.647518 
3189.000000	93.558086 
3188.000000	93.464814 
3187.000000	93.372225 
3186.000000	93.280958 
3185.000000	93.188427 
3184.000000	93.092726 
3183.000000	92.993561 
3182.000000	92.891738 
3181.000000	92.790041 
3180.000000	92.692587 
3179.000000	92.600930 
3178.000000	92.512233 
3177.000000	92.422983 
3176.000000	92.332691 
3175.000000	92.242297 
3174.000000	92.151163 
3173.000000	92.058001 
3172.000000	91.963335 
3171.000000	91.869069 
3170.000000	91.776556 
3169.000000	91.686433 
3168.000000	91.599020 
3167.000000	91.513696 
3166.000000	91.429191 
3165.000000	91.345339 
3164.000000	91.262882 
3163.000000	91.180718 
3162.000000	91.095521 
3161.000000	91.005501 
3160.000000	90.912849 
3159.000000	90.821194 
3158.000000	90.732288 
3157.000000	90.646122 
3156.000000	90.561924 
3155.000000	90.476963 
3154.000000	90.385994 
3153.000000	90.284301 
3152.000000	90.171246 
3151.000000	90.050098 
3150.000000	89.925088 
3149.000000	89.798912 
3148.000000	89.671520 
3147.000000	89.540368 
3146.000000	89.402976 
3145.000000	89.259797 
3144.000000	89.113497 
3143.000000	88.965238 
3142.000000	88.813157 
3141.000000	88.654449 
3140.000000	88.487023 
3139.000000	88.309170 
3138.000000	88.120117 
3137.000000	87.921567 
3136.000000	87.716680 
3135.000000	87.507196 
3134.000000	87.293479 
3133.000000	87.076739 
3132.000000	86.857905 
3131.000000	86.634137 
3130.000000	86.400124 
3129.000000	86.153948 
3128.000000	85.898682 
3127.000000	85.637492 
3126.000000	85.370570 
3125.000000	85.098156 
3124.000000	84.822721 
3123.000000	84.545476 
3122.000000	84.263341 
3121.000000	83.972172 
3120.000000	83.671435 
3119.000000	83.363779 
3118.000000	83.051633 
3117.000000	82.736124 
3116.000000	82.418225 
3115.000000	82.099576 
3114.000000	81.783029 
3113.000000	81.472426 
3112.000000	81.169790 
3111.000000	80.872133 
3110.000000	80.573372 
3109.000000	80.270469 
3108.000000	79.965944 
3107.000000	79.663958 
3106.000000	79.366277 
3105.000000	79.072991 
3104.000000	78.784351 
3103.000000	78.499868 
3102.000000	78.217158 
3101.000000	77.933270 
3100.000000	77.646246 
3099.000000	77.354881 
3098.000000	77.058879 
3097.000000	76.760286 
3096.000000	76.462943 
3095.000000	76.169136 
3094.000000	75.877963 
3093.000000	75.587417 
3092.000000	75.296422 
3091.000000	75.004620 
3090.000000	74.712679 
3089.000000	74.423984 
3088.000000	74.143822 
3087.000000	73.875308 
3086.000000	73.617340 
3085.000000	73.367811 
3084.000000	73.127667 
3083.000000	72.901051 
3082.000000	72.692763 
3081.000000	72.506239 
3080.000000	72.342501 
3079.000000	72.199869 
3078.000000	72.075552 
3077.000000	71.968481 
3076.000000	71.880499 
3075.000000	71.814884 
3074.000000	71.774279 
3073.000000	71.759532 
3072.000000	71.769196 
3071.000000	71.799985 
3070.000000	71.848358 
3069.000000	71.911758 
3068.000000	71.988520 
3067.000000	72.077824 
3066.000000	72.180263 
3065.000000	72.296771 
3064.000000	72.425610 
3063.000000	72.561875 
3062.000000	72.701551 
3061.000000	72.844641 
3060.000000	72.992415 
3059.000000	73.142679 
3058.000000	73.289926 
3057.000000	73.429571 
3056.000000	73.560556 
3055.000000	73.684930 
3054.000000	73.806834 
3053.000000	73.930769 
3052.000000	74.057974 
3051.000000	74.184370 
3050.000000	74.303755 
3049.000000	74.413049 
3048.000000	74.513820 
3047.000000	74.610147 
3046.000000	74.706608 
3045.000000	74.806353 
3044.000000	74.908074 
3043.000000	75.005751 
3042.000000	75.093994 
3041.000000	75.173207 
3040.000000	75.247786 
3039.000000	75.320787 
3038.000000	75.392983 
3037.000000	75.465225 
3036.000000	75.537873 
3035.000000	75.608705 
3034.000000	75.675252 
3033.000000	75.739120 
3032.000000	75.804667 
3031.000000	75.873628 
3030.000000	75.944512 
3029.000000	76.017063 
3028.000000	76.093146 
3027.000000	76.172633 
3026.000000	76.252168 
3025.000000	76.329272 
3024.000000	76.404604 
3023.000000	76.478802 
3022.000000	76.549760 
3021.000000	76.614589 
3020.000000	76.672533 
3019.000000	76.725207 
3018.000000	76.775786 
3017.000000	76.828182 
3016.000000	76.884189 
3015.000000	76.939949 
3014.000000	76.986588 
3013.000000	77.014892 
3012.000000	77.018385 
3011.000000	76.992420 
3010.000000	76.932225 
3009.000000	76.831114 
3008.000000	76.678931 
3007.000000	76.466323 
3006.000000	76.199630 
3005.000000	75.916974 
3004.000000	75.685496 
3003.000000	75.572941 
3002.000000	75.612726 
3001.000000	75.786858 
3000.000000	76.036400 
2999.000000	76.290289 
2998.000000	76.494805 
2997.000000	76.626160 
2996.000000	76.680222 
2995.000000	76.652178 
2994.000000	76.525324 
2993.000000	76.276486 
2992.000000	75.891681 
2991.000000	75.383604 
2990.000000	74.804249 
2989.000000	74.240573 
2988.000000	73.784149 
2987.000000	73.490672 
2986.000000	73.362500 
2985.000000	73.369559 
2984.000000	73.484361 
2983.000000	73.696470 
2982.000000	73.999249 
2981.000000	74.370423 
2980.000000	74.768265 
2979.000000	75.145425 
2978.000000	75.467268 
2977.000000	75.720575 
2976.000000	75.908525 
2975.000000	76.039933 
2974.000000	76.124502 
2973.000000	76.177391 
2972.000000	76.223661 
2971.000000	76.292236 
2970.000000	76.400978 
2969.000000	76.546051 
2968.000000	76.706424 
2967.000000	76.859751 
2966.000000	76.995131 
2965.000000	77.112490 
2964.000000	77.213573 
2963.000000	77.296523 
2962.000000	77.357673 
2961.000000	77.393613 
2960.000000	77.398878 
2959.000000	77.364333 
2958.000000	77.281230 
2957.000000	77.147123 
2956.000000	76.967986 
2955.000000	76.758024 
2954.000000	76.540007 
2953.000000	76.342255 
2952.000000	76.188629 
2951.000000	76.088107 
2950.000000	76.033840 
2949.000000	76.010549 
2948.000000	76.001175 
2947.000000	75.989746 
2946.000000	75.964201 
2945.000000	75.919376 
2944.000000	75.856525 
2943.000000	75.779569 
2942.000000	75.692457 
2941.000000	75.598771 
2940.000000	75.501185 
2939.000000	75.401140 
2938.000000	75.300452 
2937.000000	75.202147 
2936.000000	75.107622 
2935.000000	75.014112 
2934.000000	74.917636 
2933.000000	74.817795 
2932.000000	74.717341 
2931.000000	74.618085 
2930.000000	74.520339 
2929.000000	74.425793 
2928.000000	74.337484 
2927.000000	74.256475 
2926.000000	74.181191 
2925.000000	74.110354 
2924.000000	74.044476 
2923.000000	73.984682 
2922.000000	73.932529 
2921.000000	73.891003 
2920.000000	73.863351 
2919.000000	73.850657 
2918.000000	73.851979 
2917.000000	73.866159 
2916.000000	73.891407 
2915.000000	73.923792 
2914.000000	73.958765 
2913.000000	73.994332 
2912.000000	74.031269 
2911.000000	74.070489 
2910.000000	74.111746 
2909.000000	74.153862 
2908.000000	74.193941 
2907.000000	74.227013 
2906.000000	74.249115 
2905.000000	74.260824 
2904.000000	74.265984 
2903.000000	74.266951 
2902.000000	74.263810 
2901.000000	74.256127 
2900.000000	74.243747 
2899.000000	74.225237 
2898.000000	74.197848 
2897.000000	74.160255 
2896.000000	74.113603 
2895.000000	74.059961 
2894.000000	74.001237 
2893.000000	73.939393 
2892.000000	73.875781 
2891.000000	73.809928 
2890.000000	73.740255 
2889.000000	73.665884 
2888.000000	73.586620 
2887.000000	73.501997 
2886.000000	73.412111 
2885.000000	73.319055 
2884.000000	73.225945 
2883.000000	73.134996 
2882.000000	73.047895 
2881.000000	72.966911 
2880.000000	72.893475 
2879.000000	72.826107 
2878.000000	72.761766 
2877.000000	72.699044 
2876.000000	72.638618 
2875.000000	72.581381 
2874.000000	72.527977 
2873.000000	72.479275 
2872.000000	72.434922 
2871.000000	72.391692 
2870.000000	72.345421 
2869.000000	72.294809 
2868.000000	72.242053 
2867.000000	72.190152 
2866.000000	72.140941 
2865.000000	72.095071 
2864.000000	72.052090 
2863.000000	72.010846 
2862.000000	71.971159 
2861.000000	71.934608 
2860.000000	71.902725 
2859.000000	71.875837 
2858.000000	71.855173 
2857.000000	71.844539 
2856.000000	71.847718 
2855.000000	71.864929 
2854.000000	71.893369 
2853.000000	71.930070 
2852.000000	71.972862 
2851.000000	72.020317 
2850.000000	72.072860 
2849.000000	72.132457 
2848.000000	72.198605 
2847.000000	72.265423 
2846.000000	72.324979 
2845.000000	72.373046 
2844.000000	72.410115 
2843.000000	72.437881 
2842.000000	72.456857 
2841.000000	72.466622 
2840.000000	72.466224 
2839.000000	72.454675 
2838.000000	72.432634 
2837.000000	72.402930 
2836.000000	72.367903 
2835.000000	72.327001 
2834.000000	72.278463 
2833.000000	72.222311 
2832.000000	72.159988 
2831.000000	72.092080 
2830.000000	72.018137 
2829.000000	71.937828 
2828.000000	71.850565 
2827.000000	71.754775 
2826.000000	71.648886 
2825.000000	71.532263 
2824.000000	71.404496 
2823.000000	71.265684 
2822.000000	71.118637 
2821.000000	70.968487 
2820.000000	70.818333 
2819.000000	70.667528 
2818.000000	70.516236 
2817.000000	70.369060 
2816.000000	70.231504 
2815.000000	70.105239 
2814.000000	69.989942 
2813.000000	69.887520 
2812.000000	69.800736 
2811.000000	69.729066 
2810.000000	69.669547 
2809.000000	69.621093 
2808.000000	69.584933 
2807.000000	69.561518 
2806.000000	69.549791 
2805.000000	69.548684 
2804.000000	69.556627 
2803.000000	69.570372 
2802.000000	69.587028 
2801.000000	69.606660 
2800.000000	69.630364 
2799.000000	69.656659 
2798.000000	69.682496 
2797.000000	69.707321 
2796.000000	69.733606 
2795.000000	69.763715 
2794.000000	69.798358 
2793.000000	69.837436 
2792.000000	69.880185 
2791.000000	69.925141 
2790.000000	69.972029 
2789.000000	70.022817 
2788.000000	70.078793 
2787.000000	70.137587 
2786.000000	70.195511 
2785.000000	70.252016 
2784.000000	70.309367 
2783.000000	70.368369 
2782.000000	70.426605 
2781.000000	70.480468 
2780.000000	70.526991 
2779.000000	70.564195 
2778.000000	70.591425 
2777.000000	70.608830 
2776.000000	70.615503 
2775.000000	70.609692 
2774.000000	70.592435 
2773.000000	70.568858 
2772.000000	70.543247 
2771.000000	70.514420 
2770.000000	70.478758 
2769.000000	70.436350 
2768.000000	70.390948 
2767.000000	70.344781 
2766.000000	70.296490 
2765.000000	70.243661 
2764.000000	70.184439 
2763.000000	70.116846 
2762.000000	70.039107 
2761.000000	69.950759 
2760.000000	69.851646 
2759.000000	69.740299 
2758.000000	69.614932 
2757.000000	69.475020 
2756.000000	69.320240 
2755.000000	69.149560 
2754.000000	68.963809 
2753.000000	68.767551 
2752.000000	68.565375 
2751.000000	68.357286 
2750.000000	68.140682 
2749.000000	67.916022 
2748.000000	67.687810 
2747.000000	67.460821 
2746.000000	67.238280 
2745.000000	67.023118 
2744.000000	66.818027 
2743.000000	66.624466 
2742.000000	66.443913 
2741.000000	66.279678 
2740.000000	66.135086 
2739.000000	66.010014 
2738.000000	65.900982 
2737.000000	65.804227 
2736.000000	65.717533 
2735.000000	65.640440 
2734.000000	65.574764 
2733.000000	65.523974 
2732.000000	65.490338 
2731.000000	65.473714 
2730.000000	65.474374 
2729.000000	65.494964 
2728.000000	65.537456 
2727.000000	65.599849 
2726.000000	65.678180 
2725.000000	65.770110 
2724.000000	65.874094 
2723.000000	65.986778 
2722.000000	66.104533 
2721.000000	66.226943 
2720.000000	66.355940 
2719.000000	66.491739 
2718.000000	66.631823 
2717.000000	66.773714 
2716.000000	66.917031 
2715.000000	67.063504 
2714.000000	67.216935 
2713.000000	67.382705 
2712.000000	67.565480 
2711.000000	67.767245 
2710.000000	67.987953 
2709.000000	68.226775 
2708.000000	68.481654 
2707.000000	68.749503 
2706.000000	69.028742 
2705.000000	69.320521 
2704.000000	69.625829 
2703.000000	69.942648 
2702.000000	70.267479 
2701.000000	70.598242 
2700.000000	70.933752 
2699.000000	71.271457 
2698.000000	71.607610 
2697.000000	71.938892 
2696.000000	72.262634 
2695.000000	72.576821 
2694.000000	72.881430 
2693.000000	73.178295 
2692.000000	73.467831 
2691.000000	73.747224 
2690.000000	74.013463 
2689.000000	74.266535 
2688.000000	74.507742 
2687.000000	74.736870 
2686.000000	74.953542 
2685.000000	75.159508 
2684.000000	75.356507 
2683.000000	75.543055 
2682.000000	75.716585 
2681.000000	75.877908 
2680.000000	76.030445 
2679.000000	76.175620 
2678.000000	76.312135 
2677.000000	76.439407 
2676.000000	76.558496 
2675.000000	76.669488 
2674.000000	76.771008 
2673.000000	76.862954 
2672.000000	76.947379 
2671.000000	77.026069 
2670.000000	77.098866 
2669.000000	77.164295 
2668.000000	77.220138 
2667.000000	77.263863 
2666.000000	77.294550 
2665.000000	77.314043 
2664.000000	77.324189 
2663.000000	77.323476 
2662.000000	77.308375 
2661.000000	77.277105 
2660.000000	77.229441 
2659.000000	77.163625 
2658.000000	77.076936 
2657.000000	76.969659 
2656.000000	76.845479 
2655.000000	76.707084 
2654.000000	76.553685 
2653.000000	76.383712 
2652.000000	76.198051 
2651.000000	75.999825 
2650.000000	75.792248 
2649.000000	75.577060 
2648.000000	75.354331 
2647.000000	75.124129 
2646.000000	74.888862 
2645.000000	74.652504 
2644.000000	74.416641 
2643.000000	74.179544 
2642.000000	73.940760 
2641.000000	73.703824 
2640.000000	73.471654 
2639.000000	73.241870 
2638.000000	73.010292 
2637.000000	72.777300 
2636.000000	72.547113 
2635.000000	72.322354 
2634.000000	72.102918 
2633.000000	71.888754 
2632.000000	71.679777 
2631.000000	71.473539 
2630.000000	71.266247 
2629.000000	71.055688 
2628.000000	70.841083 
2627.000000	70.621674 
2626.000000	70.398096 
2625.000000	70.173216 
2624.000000	69.948632 
2623.000000	69.722348 
2622.000000	69.492948 
2621.000000	69.263613 
2620.000000	69.038287 
2619.000000	68.816104 
2618.000000	68.593436 
2617.000000	68.369380 
2616.000000	68.145036 
2615.000000	67.919059 
2614.000000	67.687820 
2613.000000	67.448444 
2612.000000	67.198323 
2611.000000	66.934053 
2610.000000	66.655421 
2609.000000	66.369393 
2608.000000	66.086912 
2607.000000	65.817525 
2606.000000	65.569925 
2605.000000	65.354220 
2604.000000	65.178238 
2603.000000	65.042532 
2602.000000	64.942505 
2601.000000	64.874152 
2600.000000	64.835546 
2599.000000	64.825925 
2598.000000	64.847171 
2597.000000	64.903919 
2596.000000	64.998691 
2595.000000	65.128632 
2594.000000	65.289249 
2593.000000	65.478458 
2592.000000	65.694472 
2591.000000	65.933329 
2590.000000	66.192042 
2589.000000	66.471176 
2588.000000	66.770695 
2587.000000	67.085549 
2586.000000	67.408361 
2585.000000	67.734281 
2584.000000	68.060858 
2583.000000	68.386065 
2582.000000	68.709370 
2581.000000	69.032237 
2580.000000	69.354906 
2579.000000	69.674592 
2578.000000	69.988055 
2577.000000	70.292613 
2576.000000	70.583580 
2575.000000	70.855893 
2574.000000	71.111154 
2573.000000	71.358013 
2572.000000	71.601458 
2571.000000	71.835809 
2570.000000	72.052100 
2569.000000	72.248029 
2568.000000	72.426341 
2567.000000	72.588127 
2566.000000	72.733493 
2565.000000	72.865435 
2564.000000	72.987079 
2563.000000	73.097222 
2562.000000	73.193367 
2561.000000	73.276647 
2560.000000	73.349294 
2559.000000	73.410225 
2558.000000	73.458012 
2557.000000	73.495290 
2556.000000	73.525180 
2555.000000	73.545919 
2554.000000	73.553490 
2553.000000	73.546358 
2552.000000	73.523158 
2551.000000	73.480037 
2550.000000	73.416466 
2549.000000	73.340237 
2548.000000	73.260207 
2547.000000	73.176626 
2546.000000	73.084554 
2545.000000	72.984075 
2544.000000	72.881103 
2543.000000	72.780758 
2542.000000	72.685994 
2541.000000	72.600209 
2540.000000	72.525393 
2539.000000	72.460254 
2538.000000	72.405492 
2537.000000	72.367312 
2536.000000	72.349431 
2535.000000	72.344991 
2534.000000	72.343274 
2533.000000	72.341936 
2532.000000	72.346194 
2531.000000	72.358526 
2530.000000	72.375781 
2529.000000	72.394256 
2528.000000	72.411047 
2527.000000	72.422253 
2526.000000	72.426212 
2525.000000	72.427165 
2524.000000	72.430393 
2523.000000	72.435867 
2522.000000	72.442002 
2521.000000	72.452745 
2520.000000	72.474910 
2519.000000	72.511612 
2518.000000	72.565105 
2517.000000	72.643176 
2516.000000	72.754659 
2515.000000	72.899508 
2514.000000	73.070184 
2513.000000	73.262280 
2512.000000	73.477623 
2511.000000	73.717369 
2510.000000	73.977936 
2509.000000	74.254021 
2508.000000	74.541048 
2507.000000	74.834840 
2506.000000	75.132817 
2505.000000	75.434763 
2504.000000	75.738804 
2503.000000	76.038236 
2502.000000	76.326330 
2501.000000	76.602328 
2500.000000	76.868328 
2499.000000	77.122317 
2498.000000	77.359462 
2497.000000	77.578573 
2496.000000	77.782138 
2495.000000	77.971462 
2494.000000	78.146725 
2493.000000	78.309927 
2492.000000	78.462014 
2491.000000	78.598836 
2490.000000	78.716293 
2489.000000	78.818537 
2488.000000	78.914813 
2487.000000	79.008543 
2486.000000	79.095207 
2485.000000	79.170449 
2484.000000	79.234887 
2483.000000	79.291899 
2482.000000	79.346583 
2481.000000	79.406162 
2480.000000	79.475649 
2479.000000	79.553900 
2478.000000	79.639411 
2477.000000	79.738239 
2476.000000	79.859285 
2475.000000	80.002456 
2474.000000	80.158167 
2473.000000	80.317970 
2472.000000	80.479031 
2471.000000	80.638839 
2470.000000	80.793783 
2469.000000	80.944879 
2468.000000	81.098213 
2467.000000	81.256966 
2466.000000	81.417436 
2465.000000	81.574174 
2464.000000	81.724644 
2463.000000	81.868187 
2462.000000	82.005177 
2461.000000	82.137925 
2460.000000	82.268045 
2459.000000	82.392816 
2458.000000	82.508877 
2457.000000	82.619488 
2456.000000	82.733122 
2455.000000	82.854624 
2454.000000	82.981969 
2453.000000	83.110563 
2452.000000	83.235299 
2451.000000	83.350083 
2450.000000	83.452748 
2449.000000	83.550636 
2448.000000	83.654293 
2447.000000	83.764871 
2446.000000	83.874001 
2445.000000	83.975782 
2444.000000	84.071371 
2443.000000	84.161690 
2442.000000	84.244718 
2441.000000	84.322386 
2440.000000	84.401612 
2439.000000	84.484677 
2438.000000	84.565437 
2437.000000	84.638870 
2436.000000	84.708125 
2435.000000	84.778351 
2434.000000	84.849480 
2433.000000	84.919383 
2432.000000	84.989256 
2431.000000	85.061421 
2430.000000	85.135237 
2429.000000	85.208700 
2428.000000	85.281539 
2427.000000	85.354868 
2426.000000	85.430842 
2425.000000	85.513608 
2424.000000	85.606477 
2423.000000	85.706885 
2422.000000	85.808371 
2421.000000	85.908918 
2420.000000	86.013213 
2419.000000	86.125542 
2418.000000	86.244761 
2417.000000	86.367104 
2416.000000	86.488830 
2415.000000	86.604345 
2414.000000	86.706587 
2413.000000	86.791883 
2412.000000	86.861353 
2411.000000	86.916793 
2410.000000	86.959437 
2409.000000	86.993267 
2408.000000	87.023918 
2407.000000	87.052472 
2406.000000	87.075556 
2405.000000	87.093720 
2404.000000	87.115002 
2403.000000	87.148035 
2402.000000	87.196061 
2401.000000	87.259192 
2400.000000	87.337085 
2399.000000	87.426282 
2398.000000	87.519062 
2397.000000	87.608555 
2396.000000	87.692808 
2395.000000	87.772540 
2394.000000	87.847729 
2393.000000	87.917851 
2392.000000	87.982572 
2391.000000	88.039977 
2390.000000	88.086364 
2389.000000	88.118877 
2388.000000	88.136495 
2387.000000	88.139327 
2386.000000	88.131255 
2385.000000	88.124238 
2384.000000	88.136171 
2383.000000	88.182248 
2382.000000	88.268719 
2381.000000	88.392713 
2380.000000	88.541766 
2379.000000	88.692680 
2378.000000	88.821142 
2377.000000	88.913891 
2376.000000	88.971325 
2375.000000	88.997408 
2374.000000	88.995303 
2373.000000	88.978905 
2372.000000	88.971320 
2371.000000	88.987411 
2370.000000	89.029975 
2369.000000	89.098409 
2368.000000	89.183400 
2367.000000	89.260251 
2366.000000	89.312661 
2365.000000	89.347159 
2364.000000	89.366981 
2363.000000	89.380248 
2362.000000	89.390782 
2361.000000	89.392028 
2360.000000	89.404348 
2359.000000	89.424446 
2358.000000	89.460570 
2357.000000	89.546786 
2356.000000	89.673399 
2355.000000	89.813835 
2354.000000	89.929577 
2353.000000	89.991928 
2352.000000	89.916668 
2351.000000	89.651211 
2350.000000	89.352008 
2349.000000	89.230295 
2348.000000	89.399234 
2347.000000	89.734780 
2346.000000	89.994234 
2345.000000	90.061142 
2344.000000	89.985679 
2343.000000	89.939155 
2342.000000	89.972720 
2341.000000	90.056267 
2340.000000	90.149527 
2339.000000	90.221649 
2338.000000	90.273061 
2337.000000	90.307988 
2336.000000	90.323299 
2335.000000	90.315278 
2334.000000	90.293449 
2333.000000	90.289360 
2332.000000	90.312715 
2331.000000	90.325841 
2330.000000	90.324781 
2329.000000	90.275409 
2328.000000	90.199360 
2327.000000	90.111694 
2326.000000	90.039895 
2325.000000	90.018637 
2324.000000	90.027125 
2323.000000	90.071404 
2322.000000	90.126728 
2321.000000	90.194848 
2320.000000	90.255877 
2319.000000	90.289663 
2318.000000	90.298527 
2317.000000	90.298621 
2316.000000	90.316134 
2315.000000	90.336920 
2314.000000	90.341857 
2313.000000	90.313757 
2312.000000	90.267833 
2311.000000	90.216468 
2310.000000	90.171055 
2309.000000	90.136165 
2308.000000	90.115552 
2307.000000	90.105967 
2306.000000	90.093318 
2305.000000	90.066396 
2304.000000	90.016391 
2303.000000	89.946624 
2302.000000	89.871614 
2301.000000	89.812025 
2300.000000	89.782015 
2299.000000	89.773980 
2298.000000	89.776494 
2297.000000	89.787889 
2296.000000	89.820899 
2295.000000	89.879209 
2294.000000	89.954096 
2293.000000	90.036447 
2292.000000	90.122298 
2291.000000	90.210666 
2290.000000	90.297881 
2289.000000	90.387474 
2288.000000	90.483380 
2287.000000	90.582875 
2286.000000	90.673599 
2285.000000	90.750273 
2284.000000	90.817945 
2283.000000	90.883018 
2282.000000	90.943663 
2281.000000	90.997208 
2280.000000	91.043686 
2279.000000	91.080290 
2278.000000	91.099790 
2277.000000	91.100531 
2276.000000	91.091079 
2275.000000	91.076308 
2274.000000	91.052017 
2273.000000	91.011059 
2272.000000	90.952252 
2271.000000	90.879051 
2270.000000	90.798794 
2269.000000	90.724856 
2268.000000	90.669582 
2267.000000	90.636404 
2266.000000	90.625814 
2265.000000	90.643496 
2264.000000	90.694916 
2263.000000	90.773152 
2262.000000	90.866769 
2261.000000	90.975894 
2260.000000	91.103872 
2259.000000	91.243010 
2258.000000	91.379810 
2257.000000	91.516755 
2256.000000	91.666415 
2255.000000	91.825525 
2254.000000	91.975557 
2253.000000	92.109372 
2252.000000	92.239369 
2251.000000	92.370574 
2250.000000	92.489644 
2249.000000	92.586000 
2248.000000	92.668107 
2247.000000	92.748830 
2246.000000	92.829761 
2245.000000	92.907856 
2244.000000	92.983070 
2243.000000	93.053580 
2242.000000	93.115839 
2241.000000	93.174174 
2240.000000	93.235532 
2239.000000	93.293100 
2238.000000	93.332356 
2237.000000	93.356773 
2236.000000	93.387119 
2235.000000	93.430310 
2234.000000	93.469405 
2233.000000	93.491816 
2232.000000	93.506933 
2231.000000	93.527561 
2230.000000	93.554309 
2229.000000	93.587694 
2228.000000	93.635512 
2227.000000	93.696199 
2226.000000	93.751902 
2225.000000	93.789213 
2224.000000	93.813275 
2223.000000	93.834203 
2222.000000	93.855569 
2221.000000	93.881902 
2220.000000	93.919068 
2219.000000	93.960147 
2218.000000	93.988614 
2217.000000	94.001610 
2216.000000	94.012427 
2215.000000	94.026371 
2214.000000	94.035254 
2213.000000	94.039431 
2212.000000	94.050435 
2211.000000	94.065639 
2210.000000	94.066183 
2209.000000	94.049238 
2208.000000	94.036972 
2207.000000	94.042491 
2206.000000	94.051083 
2205.000000	94.046772 
2204.000000	94.034128 
2203.000000	94.021443 
2202.000000	94.004524 
2201.000000	93.979912 
2200.000000	93.954283 
2199.000000	93.930305 
2198.000000	93.902713 
2197.000000	93.876375 
2196.000000	93.866462 
2195.000000	93.872334 
2194.000000	93.872593 
2193.000000	93.852892 
2192.000000	93.817269 
2191.000000	93.768554 
2190.000000	93.704450 
2189.000000	93.637846 
2188.000000	93.590443 
2187.000000	93.559175 
2186.000000	93.521256 
2185.000000	93.480981 
2184.000000	93.474254 
2183.000000	93.509418 
2182.000000	93.537787 
2181.000000	93.506151 
2180.000000	93.413657 
2179.000000	93.299786 
2178.000000	93.203653 
2177.000000	93.148680 
2176.000000	93.135468 
2175.000000	93.132441 
2174.000000	93.096991 
2173.000000	93.017898 
2172.000000	92.916876 
2171.000000	92.806896 
2170.000000	92.680062 
2169.000000	92.541884 
2168.000000	92.421736 
2167.000000	92.333970 
2166.000000	92.256192 
2165.000000	92.160007 
2164.000000	92.040993 
2163.000000	91.914205 
2162.000000	91.812224 
2161.000000	91.790100 
2160.000000	91.882651 
2159.000000	92.038499 
2158.000000	92.147470 
2157.000000	92.150388 
2156.000000	92.070849 
2155.000000	91.944816 
2154.000000	91.782403 
2153.000000	91.596076 
2152.000000	91.408904 
2151.000000	91.222383 
2150.000000	91.014229 
2149.000000	90.777957 
2148.000000	90.532904 
2147.000000	90.290493 
2146.000000	90.043546 
2145.000000	89.792175 
2144.000000	89.546240 
2143.000000	89.298994 
2142.000000	89.032134 
2141.000000	88.751623 
2140.000000	88.486622 
2139.000000	88.248202 
2138.000000	88.019516 
2137.000000	87.791129 
2136.000000	87.575085 
2135.000000	87.375859 
2134.000000	87.176120 
2133.000000	86.963290 
2132.000000	86.748448 
2131.000000	86.549703 
2130.000000	86.374072 
2129.000000	86.221285 
2128.000000	86.090759 
2127.000000	85.980045 
2126.000000	85.886598 
2125.000000	85.812707 
2124.000000	85.760330 
2123.000000	85.723478 
2122.000000	85.695865 
2121.000000	85.682713 
2120.000000	85.693688 
2119.000000	85.727621 
2118.000000	85.775762 
2117.000000	85.835688 
2116.000000	85.909131 
2115.000000	85.990543 
2114.000000	86.072761 
2113.000000	86.161522 
2112.000000	86.269253 
2111.000000	86.396029 
2110.000000	86.531468 
2109.000000	86.673221 
2108.000000	86.827024 
2107.000000	86.989641 
2106.000000	87.149635 
2105.000000	87.306122 
2104.000000	87.469281 
2103.000000	87.639922 
2102.000000	87.805431 
2101.000000	87.959537 
2100.000000	88.110842 
2099.000000	88.268732 
2098.000000	88.435663 
2097.000000	88.613941 
2096.000000	88.802640 
2095.000000	88.986353 
2094.000000	89.145783 
2093.000000	89.282895 
2092.000000	89.418153 
2091.000000	89.561541 
2090.000000	89.704964 
2089.000000	89.844394 
2088.000000	89.987726 
2087.000000	90.135453 
2086.000000	90.275274 
2085.000000	90.404647 
2084.000000	90.538783 
2083.000000	90.686207 
2082.000000	90.835523 
2081.000000	90.976720 
2080.000000	91.115980 
2079.000000	91.256627 
2078.000000	91.384302 
2077.000000	91.486766 
2076.000000	91.573904 
2075.000000	91.663993 
2074.000000	91.762855 
2073.000000	91.867892 
2072.000000	91.977169 
2071.000000	92.083386 
2070.000000	92.174245 
2069.000000	92.249664 
2068.000000	92.323875 
2067.000000	92.401736 
2066.000000	92.470273 
2065.000000	92.522827 
2064.000000	92.572067 
2063.000000	92.627560 
2062.000000	92.680083 
2061.000000	92.718363 
2060.000000	92.741563 
2059.000000	92.746893 
2058.000000	92.727506 
2057.000000	92.693037 
2056.000000	92.667293 
2055.000000	92.651608 
2054.000000	92.614693 
2053.000000	92.537167 
2052.000000	92.446690 
2051.000000	92.394202 
2050.000000	92.412035 
2049.000000	92.500999 
2048.000000	92.636392 
2047.000000	92.776096 
2046.000000	92.882361 
2045.000000	92.951375 
2044.000000	93.009362 
2043.000000	93.073857 
2042.000000	93.139260 
2041.000000	93.203095 
2040.000000	93.275847 
2039.000000	93.356502 
2038.000000	93.430392 
2037.000000	93.501826 
2036.000000	93.595287 
2035.000000	93.711454 
2034.000000	93.817592 
2033.000000	93.896400 
2032.000000	93.966245 
2031.000000	94.037290 
2030.000000	94.090025 
2029.000000	94.115803 
2028.000000	94.137348 
2027.000000	94.170613 
2026.000000	94.204158 
2025.000000	94.232338 
2024.000000	94.269403 
2023.000000	94.316318 
2022.000000	94.353986 
2021.000000	94.380933 
2020.000000	94.415441 
2019.000000	94.450380 
2018.000000	94.454755 
2017.000000	94.435646 
2016.000000	94.444969 
2015.000000	94.501990 
2014.000000	94.561353 
2013.000000	94.580320 
2012.000000	94.572405 
2011.000000	94.574191 
2010.000000	94.602558 
2009.000000	94.665985 
2008.000000	94.771303 
2007.000000	94.892648 
2006.000000	94.975071 
2005.000000	94.997107 
2004.000000	94.993628 
2003.000000	94.999878 
2002.000000	95.014084 
2001.000000	95.026828 
2000.000000	95.046622 
1999.000000	95.076824 
1998.000000	95.102815 
1997.000000	95.121656 
1996.000000	95.148872 
1995.000000	95.179697 
1994.000000	95.181789 
1993.000000	95.148693 
1992.000000	95.124440 
1991.000000	95.147053 
1990.000000	95.203417 
1989.000000	95.264023 
1988.000000	95.319899 
1987.000000	95.363497 
1986.000000	95.375301 
1985.000000	95.355724 
1984.000000	95.333204 
1983.000000	95.316999 
1982.000000	95.283294 
1981.000000	95.234430 
1980.000000	95.229367 
1979.000000	95.314105 
1978.000000	95.454403 
1977.000000	95.581366 
1976.000000	95.669439 
1975.000000	95.723900 
1974.000000	95.737703 
1973.000000	95.715368 
1972.000000	95.698865 
1971.000000	95.720825 
1970.000000	95.760086 
1969.000000	95.776856 
1968.000000	95.763967 
1967.000000	95.735666 
1966.000000	95.696086 
1965.000000	95.650105 
1964.000000	95.618226 
1963.000000	95.613519 
1962.000000	95.625094 
1961.000000	95.639880 
1960.000000	95.656078 
1959.000000	95.664097 
1958.000000	95.647394 
1957.000000	95.615121 
1956.000000	95.600586 
1955.000000	95.615441 
1954.000000	95.637598 
1953.000000	95.655361 
1952.000000	95.685850 
1951.000000	95.736737 
1950.000000	95.786530 
1949.000000	95.819699 
1948.000000	95.850401 
1947.000000	95.891234 
1946.000000	95.927576 
1945.000000	95.943784 
1944.000000	95.950155 
1943.000000	95.966083 
1942.000000	95.997293 
1941.000000	96.043112 
1940.000000	96.104153 
1939.000000	96.169017 
1938.000000	96.214365 
1937.000000	96.231935 
1936.000000	96.237286 
1935.000000	96.243071 
1934.000000	96.248300 
1933.000000	96.261025 
1932.000000	96.297170 
1931.000000	96.349149 
1930.000000	96.384983 
1929.000000	96.389589 
1928.000000	96.384674 
1927.000000	96.391154 
1926.000000	96.401371 
1925.000000	96.399654 
1924.000000	96.386326 
1923.000000	96.372103 
1922.000000	96.363147 
1921.000000	96.363746 
1920.000000	96.379269 
1919.000000	96.405438 
1918.000000	96.432488 
1917.000000	96.463326 
1916.000000	96.504507 
1915.000000	96.544162 
1914.000000	96.561833 
1913.000000	96.559420 
1912.000000	96.559300 
1911.000000	96.570157 
1910.000000	96.579054 
1909.000000	96.582874 
1908.000000	96.598670 
1907.000000	96.629090 
1906.000000	96.652787 
1905.000000	96.658316 
1904.000000	96.659879 
1903.000000	96.672865 
1902.000000	96.692534 
1901.000000	96.709192 
1900.000000	96.724255 
1899.000000	96.736547 
1898.000000	96.736392 
1897.000000	96.725571 
1896.000000	96.722210 
1895.000000	96.737215 
1894.000000	96.761992 
1893.000000	96.787401 
1892.000000	96.815458 
1891.000000	96.843995 
1890.000000	96.863042 
1889.000000	96.877147 
1888.000000	96.903564 
1887.000000	96.941751 
1886.000000	96.971896 
1885.000000	96.986891 
1884.000000	97.001896 
1883.000000	97.025742 
1882.000000	97.045083 
1881.000000	97.048996 
1880.000000	97.048067 
1879.000000	97.052103 
1878.000000	97.052365 
1877.000000	97.042137 
1876.000000	97.029886 
1875.000000	97.019974 
1874.000000	97.003191 
1873.000000	96.976081 
1872.000000	96.948888 
1871.000000	96.923752 
1870.000000	96.885533 
1869.000000	96.835057 
1868.000000	96.803457 
1867.000000	96.806422 
1866.000000	96.822954 
1865.000000	96.831853 
1864.000000	96.833132 
1863.000000	96.830111 
1862.000000	96.816553 
1861.000000	96.792276 
1860.000000	96.771271 
1859.000000	96.761856 
1858.000000	96.756168 
1857.000000	96.748715 
1856.000000	96.745828 
1855.000000	96.748837 
1854.000000	96.747269 
1853.000000	96.735520 
1852.000000	96.724314 
1851.000000	96.720735 
1850.000000	96.715171 
1849.000000	96.703954 
1848.000000	96.700117 
1847.000000	96.711033 
1846.000000	96.721305 
1845.000000	96.715792 
1844.000000	96.715322 
1843.000000	96.751558 
1842.000000	96.814792 
1841.000000	96.877058 
1840.000000	96.931681 
1839.000000	96.980224 
1838.000000	97.018216 
1837.000000	97.044556 
1836.000000	97.067647 
1835.000000	97.092204 
1834.000000	97.111086 
1833.000000	97.120752 
1832.000000	97.129690 
1831.000000	97.135248 
1830.000000	97.125880 
1829.000000	97.114989 
1828.000000	97.124541 
1827.000000	97.147415 
1826.000000	97.154958 
1825.000000	97.142196 
1824.000000	97.140479 
1823.000000	97.165791 
1822.000000	97.196288 
1821.000000	97.213197 
1820.000000	97.224829 
1819.000000	97.240313 
1818.000000	97.250939 
1817.000000	97.247714 
1816.000000	97.232957 
1815.000000	97.206527 
1814.000000	97.159885 
1813.000000	97.099215 
1812.000000	97.048062 
1811.000000	97.016403 
1810.000000	96.993499 
1809.000000	96.972593 
1808.000000	96.961205 
1807.000000	96.959904 
1806.000000	96.952296 
1805.000000	96.926609 
1804.000000	96.891751 
1803.000000	96.863964 
1802.000000	96.846103 
1801.000000	96.837094 
1800.000000	96.839927 
1799.000000	96.847173 
1798.000000	96.844320 
1797.000000	96.830099 
1796.000000	96.818302 
1795.000000	96.813743 
1794.000000	96.796966 
1793.000000	96.752416 
1792.000000	96.708078 
1791.000000	96.703461 
1790.000000	96.731456 
1789.000000	96.757996 
1788.000000	96.766078 
1787.000000	96.754268 
1786.000000	96.726375 
1785.000000	96.695821 
1784.000000	96.680824 
1783.000000	96.681659 
1782.000000	96.672158 
1781.000000	96.639515 
1780.000000	96.607809 
1779.000000	96.594329 
1778.000000	96.574967 
1777.000000	96.516923 
1776.000000	96.428351 
1775.000000	96.344297 
1774.000000	96.269272 
1773.000000	96.170136 
1772.000000	96.050171 
1771.000000	95.948716 
1770.000000	95.867285 
1769.000000	95.786473 
1768.000000	95.707727 
1767.000000	95.638332 
1766.000000	95.565327 
1765.000000	95.470360 
1764.000000	95.354279 
1763.000000	95.222904 
1762.000000	95.079169 
1761.000000	94.944621 
1760.000000	94.841456 
1759.000000	94.759188 
1758.000000	94.660804 
1757.000000	94.523092 
1756.000000	94.371704 
1755.000000	94.231285 
1754.000000	94.084926 
1753.000000	93.916164 
1752.000000	93.746859 
1751.000000	93.611474 
1750.000000	93.509383 
1749.000000	93.412900 
1748.000000	93.317082 
1747.000000	93.232325 
1746.000000	93.144414 
1745.000000	93.040322 
1744.000000	92.941717 
1743.000000	92.874635 
1742.000000	92.827068 
1741.000000	92.766272 
1740.000000	92.688748 
1739.000000	92.627160 
1738.000000	92.595919 
1737.000000	92.589903 
1736.000000	92.630839 
1735.000000	92.730160 
1734.000000	92.863134 
1733.000000	93.006771 
1732.000000	93.135378 
1731.000000	93.224794 
1730.000000	93.273061 
1729.000000	93.299941 
1728.000000	93.337207 
1727.000000	93.390768 
1726.000000	93.437516 
1725.000000	93.467882 
1724.000000	93.501810 
1723.000000	93.551328 
1722.000000	93.598604 
1721.000000	93.625774 
1720.000000	93.646897 
1719.000000	93.676793 
1718.000000	93.715921 
1717.000000	93.791799 
1716.000000	93.928920 
1715.000000	94.102896 
1714.000000	94.277626 
1713.000000	94.438765 
1712.000000	94.589811 
1711.000000	94.731647 
1710.000000	94.852880 
1709.000000	94.949566 
1708.000000	95.038030 
1707.000000	95.124288 
1706.000000	95.184053 
1705.000000	95.207997 
1704.000000	95.213558 
1703.000000	95.221868 
1702.000000	95.235130 
1701.000000	95.209296 
1700.000000	95.160828 
1699.000000	95.157385 
1698.000000	95.175068 
1697.000000	95.167938 
1696.000000	95.145804 
1695.000000	95.152538 
1694.000000	95.185599 
1693.000000	95.191792 
1692.000000	95.152903 
1691.000000	95.075227 
1690.000000	94.959639 
1689.000000	94.815393 
1688.000000	94.676907 
1687.000000	94.571335 
1686.000000	94.479834 
1685.000000	94.317245 
1684.000000	94.103343 
1683.000000	93.983498 
1682.000000	93.941455 
1681.000000	93.875312 
1680.000000	93.777196 
1679.000000	93.673774 
1678.000000	93.560340 
1677.000000	93.397436 
1676.000000	93.170323 
1675.000000	92.919930 
1674.000000	92.682267 
1673.000000	92.432005 
1672.000000	92.133245 
1671.000000	91.759727 
1670.000000	91.286135 
1669.000000	90.743830 
1668.000000	90.225585 
1667.000000	89.772742 
1666.000000	89.332093 
1665.000000	88.826740 
1664.000000	88.219979 
1663.000000	87.549816 
1662.000000	86.895325 
1661.000000	86.292229 
1660.000000	85.739134 
1659.000000	85.231499 
1658.000000	84.747658 
1657.000000	84.261744 
1656.000000	83.787443 
1655.000000	83.361609 
1654.000000	82.893893 
1653.000000	82.359567 
1652.000000	81.989892 
1651.000000	81.815473 
1650.000000	81.644714 
1649.000000	81.355652 
1648.000000	80.898240 
1647.000000	80.328910 
1646.000000	79.750955 
1645.000000	79.203764 
1644.000000	78.662068 
1643.000000	78.110802 
1642.000000	77.528173 
1641.000000	76.897201 
1640.000000	76.256414 
1639.000000	75.663499 
1638.000000	75.105153 
1637.000000	74.475463 
1636.000000	73.725722 
1635.000000	72.990097 
1634.000000	72.359145 
1633.000000	71.747517 
1632.000000	71.081174 
1631.000000	70.360350 
1630.000000	69.578856 
1629.000000	68.711201 
1628.000000	67.799374 
1627.000000	66.953969 
1626.000000	66.211925 
1625.000000	65.505833 
1624.000000	64.797796 
1623.000000	64.167455 
1622.000000	63.697031 
1621.000000	63.356197 
1620.000000	63.099551 
1619.000000	62.955067 
1618.000000	62.969711 
1617.000000	63.138521 
1616.000000	63.425325 
1615.000000	63.793118 
1614.000000	64.192395 
1613.000000	64.586367 
1612.000000	64.967189 
1611.000000	65.314242 
1610.000000	65.545633 
1609.000000	65.553426 
1608.000000	65.283663 
1607.000000	64.734936 
1606.000000	63.892522 
1605.000000	62.722679 
1604.000000	61.230723 
1603.000000	59.468715 
1602.000000	57.477841 
1601.000000	55.267263 
1600.000000	52.867537 
1599.000000	50.346809 
1598.000000	47.743134 
1597.000000	45.043473 
1596.000000	42.274536 
1595.000000	39.557281 
1594.000000	37.012512 
1593.000000	34.676886 
1592.000000	32.576541 
1591.000000	30.793399 
1590.000000	29.375313 
1589.000000	28.266927 
1588.000000	27.411772 
1587.000000	26.832366 
1586.000000	26.532668 
1585.000000	26.425214 
1584.000000	26.443053 
1583.000000	26.621935 
1582.000000	26.980521 
1581.000000	27.420274 
1580.000000	27.844440 
1579.000000	28.295816 
1578.000000	28.903171 
1577.000000	29.731633 
1576.000000	30.690296 
1575.000000	31.595486 
1574.000000	32.320953 
1573.000000	32.868029 
1572.000000	33.353475 
1571.000000	33.954116 
1570.000000	34.738946 
1569.000000	35.546583 
1568.000000	36.214712 
1567.000000	36.801461 
1566.000000	37.443594 
1565.000000	38.154775 
1564.000000	38.838694 
1563.000000	39.413802 
1562.000000	39.911607 
1561.000000	40.473615 
1560.000000	41.361379 
1559.000000	42.674157 
1558.000000	43.970592 
1557.000000	44.860343 
1556.000000	45.491313 
1555.000000	46.141109 
1554.000000	46.883179 
1553.000000	47.600620 
1552.000000	48.205765 
1551.000000	48.763688 
1550.000000	49.344557 
1549.000000	49.898116 
1548.000000	50.336233 
1547.000000	50.669519 
1546.000000	50.970368 
1545.000000	51.268099 
1544.000000	51.534665 
1543.000000	51.750099 
1542.000000	51.931178 
1541.000000	52.078842 
1540.000000	52.165706 
1539.000000	52.191149 
1538.000000	52.149278 
1537.000000	52.008714 
1536.000000	51.768539 
1535.000000	51.465004 
1534.000000	51.148792 
1533.000000	50.863039 
1532.000000	50.616946 
1531.000000	50.399513 
1530.000000	50.220069 
1529.000000	50.100237 
1528.000000	50.059654 
1527.000000	50.115985 
1526.000000	50.258195 
1525.000000	50.424189 
1524.000000	50.557999 
1523.000000	50.679897 
1522.000000	50.862769 
1521.000000	51.125875 
1520.000000	51.402755 
1519.000000	51.663528 
1518.000000	51.976577 
1517.000000	52.419312 
1516.000000	52.980921 
1515.000000	53.593628 
1514.000000	54.235058 
1513.000000	54.923039 
1512.000000	55.640952 
1511.000000	56.336426 
1510.000000	56.990669 
1509.000000	57.665439 
1508.000000	58.484366 
1507.000000	59.525310 
1506.000000	60.658766 
1505.000000	61.639762 
1504.000000	62.397202 
1503.000000	63.035790 
1502.000000	63.666632 
1501.000000	64.326019 
1500.000000	64.988108 
1499.000000	65.649891 
1498.000000	66.357655 
1497.000000	67.135765 
1496.000000	67.935214 
1495.000000	68.693677 
1494.000000	69.385893 
1493.000000	70.008676 
1492.000000	70.588094 
1491.000000	71.188829 
1490.000000	71.852132 
1489.000000	72.528705 
1488.000000	73.141897 
1487.000000	73.680067 
1486.000000	74.153669 
1485.000000	74.530443 
1484.000000	74.793685 
1483.000000	74.995625 
1482.000000	75.202688 
1481.000000	75.423962 
1480.000000	75.625862 
1479.000000	75.789397 
1478.000000	75.899620 
1477.000000	75.921616 
1476.000000	75.838794 
1475.000000	75.679699 
1474.000000	75.446572 
1473.000000	75.092673 
1472.000000	74.650973 
1471.000000	74.227695 
1470.000000	73.832153 
1469.000000	73.384436 
1468.000000	72.838568 
1467.000000	72.199509 
1466.000000	71.454219 
1465.000000	70.569511 
1464.000000	69.590913 
1463.000000	68.600871 
1462.000000	67.580498 
1461.000000	66.436809 
1460.000000	65.082307 
1459.000000	63.412730 
1458.000000	61.255746 
1457.000000	58.732270 
1456.000000	56.507278 
1455.000000	55.027742 
1454.000000	54.144783 
1453.000000	53.622767 
1452.000000	53.373178 
1451.000000	53.381095 
1450.000000	53.662082 
1449.000000	54.311815 
1448.000000	55.463326 
1447.000000	57.125070 
1446.000000	59.161737 
1445.000000	61.423829 
1444.000000	63.786945 
1443.000000	66.109410 
1442.000000	68.247748 
1441.000000	70.092553 
1440.000000	71.600466 
1439.000000	72.831402 
1438.000000	73.932025 
1437.000000	74.995828 
1436.000000	75.946194 
1435.000000	76.679010 
1434.000000	77.223710 
1433.000000	77.653894 
1432.000000	77.980597 
1431.000000	78.185849 
1430.000000	78.279053 
1429.000000	78.274485 
1428.000000	78.154120 
1427.000000	77.900473 
1426.000000	77.503048 
1425.000000	76.925113 
1424.000000	76.149426 
1423.000000	75.229128 
1422.000000	74.181582 
1421.000000	72.863497 
1420.000000	71.045697 
1419.000000	68.708936 
1418.000000	66.118162 
1417.000000	63.429461 
1416.000000	60.570130 
1415.000000	57.498067 
1414.000000	54.281813 
1413.000000	51.053692 
1412.000000	48.035752 
1411.000000	45.523249 
1410.000000	43.720103 
1409.000000	42.677943 
1408.000000	42.424567 
1407.000000	42.995464 
1406.000000	44.325362 
1405.000000	46.239748 
1404.000000	48.540766 
1403.000000	51.037926 
1402.000000	53.602089 
1401.000000	56.244582 
1400.000000	59.031822 
1399.000000	61.859824 
1398.000000	64.470501 
1397.000000	66.753545 
1396.000000	68.822933 
1395.000000	70.780661 
1394.000000	72.562181 
1393.000000	74.054793 
1392.000000	75.247235 
1391.000000	76.200229 
1390.000000	76.969841 
1389.000000	77.581792 
1388.000000	78.027333 
1387.000000	78.266271 
1386.000000	78.237755 
1385.000000	77.885486 
1384.000000	77.229391 
1383.000000	76.457911 
1382.000000	75.904731 
1381.000000	75.843147 
1380.000000	76.296899 
1379.000000	77.061445 
1378.000000	77.872549 
1377.000000	78.563115 
1376.000000	79.101229 
1375.000000	79.530138 
1374.000000	79.892401 
1373.000000	80.185396 
1372.000000	80.369199 
1371.000000	80.404174 
1370.000000	80.257172 
1369.000000	79.877308 
1368.000000	79.205401 
1367.000000	78.215506 
1366.000000	76.906595 
1365.000000	75.226443 
1364.000000	73.042245 
1363.000000	70.251008 
1362.000000	66.921890 
1361.000000	63.246045 
1360.000000	59.374588 
1359.000000	55.401994 
1358.000000	51.446971 
1357.000000	47.675790 
1356.000000	44.286725 
1355.000000	41.500036 
1354.000000	39.511777 
1353.000000	38.421096 
1352.000000	38.221001 
1351.000000	38.843112 
1350.000000	40.165326 
1349.000000	41.999579 
1348.000000	44.136913 
1347.000000	46.414348 
1346.000000	48.725863 
1345.000000	50.994692 
1344.000000	53.172085 
1343.000000	55.258373 
1342.000000	57.298202 
1341.000000	59.341123 
1340.000000	61.399631 
1339.000000	63.437859 
1338.000000	65.401840 
1337.000000	67.258069 
1336.000000	68.999963 
1335.000000	70.631129 
1334.000000	72.153521 
1333.000000	73.564945 
1332.000000	74.860144 
1331.000000	76.035554 
1330.000000	77.092830 
1329.000000	78.032543 
1328.000000	78.845395 
1327.000000	79.516467 
1326.000000	80.035617 
1325.000000	80.396936 
1324.000000	80.592180 
1323.000000	80.608835 
1322.000000	80.426539 
1321.000000	80.005440 
1320.000000	79.284060 
1319.000000	78.196730 
1318.000000	76.685314 
1317.000000	74.686347 
1316.000000	72.122793 
1315.000000	68.929531 
1314.000000	65.097813 
1313.000000	60.719215 
1312.000000	56.017921 
1311.000000	51.337439 
1310.000000	47.068220 
1309.000000	43.572348 
1308.000000	41.133585 
1307.000000	39.883450 
1306.000000	39.729505 
1305.000000	40.402632 
1304.000000	41.606237 
1303.000000	43.113232 
1302.000000	44.763216 
1301.000000	46.445259 
1300.000000	48.106920 
1299.000000	49.744749 
1298.000000	51.364829 
1297.000000	52.962110 
1296.000000	54.532994 
1295.000000	56.080190 
1294.000000	57.596278 
1293.000000	59.060437 
1292.000000	60.458490 
1291.000000	61.793546 
1290.000000	63.072628 
1289.000000	64.294675 
1288.000000	65.456620 
1287.000000	66.560538 
1286.000000	67.607753 
1285.000000	68.593522 
1284.000000	69.514810 
1283.000000	70.378428 
1282.000000	71.195078 
1281.000000	71.968824 
1280.000000	72.699155 
1279.000000	73.390234 
1278.000000	74.049617 
1277.000000	74.679063 
1276.000000	75.274543 
1275.000000	75.835364 
1274.000000	76.365425 
1273.000000	76.865607 
1272.000000	77.333905 
1271.000000	77.774590 
1270.000000	78.197588 
1269.000000	78.605790 
1268.000000	78.992416 
1267.000000	79.353642 
1266.000000	79.693725 
1265.000000	80.014216 
1264.000000	80.308916 
1263.000000	80.575145 
1262.000000	80.819723 
1261.000000	81.046811 
1260.000000	81.248890 
1259.000000	81.415805 
1258.000000	81.542178 
1257.000000	81.618233 
1256.000000	81.621363 
1255.000000	81.522864 
1254.000000	81.294939 
1253.000000	80.908209 
1252.000000	80.338579 
1251.000000	79.592079 
1250.000000	78.720602 
1249.000000	77.809960 
1248.000000	76.954756 
1247.000000	76.225045 
1246.000000	75.620108 
1245.000000	75.046020 
1244.000000	74.361366 
1243.000000	73.465388 
1242.000000	72.354838 
1241.000000	71.121454 
1240.000000	69.923526 
1239.000000	68.947829 
1238.000000	68.349720 
1237.000000	68.201134 
1236.000000	68.489634 
1235.000000	69.147486 
1234.000000	70.071896 
1233.000000	71.143454 
1232.000000	72.255600 
1231.000000	73.337710 
1230.000000	74.355481 
1229.000000	75.298035 
1228.000000	76.168367 
1227.000000	76.978931 
1226.000000	77.744594 
1225.000000	78.473333 
1224.000000	79.160638 
1223.000000	79.785648 
1222.000000	80.309163 
1221.000000	80.689460 
1220.000000	80.923575 
1219.000000	81.079287 
1218.000000	81.267669 
1217.000000	81.568090 
1216.000000	81.981469 
1215.000000	82.451718 
1214.000000	82.915718 
1213.000000	83.331523 
1212.000000	83.681935 
1211.000000	83.972375 
1210.000000	84.222193 
1209.000000	84.447148 
1208.000000	84.653072 
1207.000000	84.848469 
1206.000000	85.050587 
1205.000000	85.271258 
1204.000000	85.507577 
1203.000000	85.754068 
1202.000000	86.012915 
1201.000000	86.284133 
1200.000000	86.557198 
1199.000000	86.822816 
1198.000000	87.083966 
1197.000000	87.346051 
1196.000000	87.604867 
1195.000000	87.853303 
1194.000000	88.090976 
1193.000000	88.318374 
1192.000000	88.530790 
1191.000000	88.726957 
1190.000000	88.914108 
1189.000000	89.095541 
1188.000000	89.263217 
1187.000000	89.411483 
1186.000000	89.547344 
1185.000000	89.677889 
1184.000000	89.798784 
1183.000000	89.904560 
1182.000000	89.998387 
1181.000000	90.082044 
1180.000000	90.148766 
1179.000000	90.195964 
1178.000000	90.231356 
1177.000000	90.255363 
1176.000000	90.250734 
1175.000000	90.200151 
1174.000000	90.099109 
1173.000000	89.938414 
1172.000000	89.688563 
1171.000000	89.317089 
1170.000000	88.814447 
1169.000000	88.201327 
1168.000000	87.534586 
1167.000000	86.916575 
1166.000000	86.466643 
1165.000000	86.250317 
1164.000000	86.235129 
1163.000000	86.316907 
1162.000000	86.376394 
1161.000000	86.311947 
1160.000000	86.048329 
1159.000000	85.542308 
1158.000000	84.773407 
1157.000000	83.713281 
1156.000000	82.314901 
1155.000000	80.549211 
1154.000000	78.453165 
1153.000000	76.153438 
1152.000000	73.874874 
1151.000000	71.921422 
1150.000000	70.591721 
1149.000000	70.067403 
1148.000000	70.361331 
1147.000000	71.339693 
1146.000000	72.779913 
1145.000000	74.443198 
1144.000000	76.138651 
1143.000000	77.750260 
1142.000000	79.224776 
1141.000000	80.543770 
1140.000000	81.705336 
1139.000000	82.721668 
1138.000000	83.615863 
1137.000000	84.407626 
1136.000000	85.103719 
1135.000000	85.705519 
1134.000000	86.216283 
1133.000000	86.633495 
1132.000000	86.944380 
1131.000000	87.139495 
1130.000000	87.221995 
1129.000000	87.192752 
1128.000000	87.033317 
1127.000000	86.707977 
1126.000000	86.165855 
1125.000000	85.327679 
1124.000000	84.080965 
1123.000000	82.296287 
1122.000000	79.838162 
1121.000000	76.573539 
1120.000000	72.434376 
1119.000000	67.534374 
1118.000000	62.238648 
1117.000000	57.124168 
1116.000000	52.865587 
1115.000000	50.053706 
1114.000000	48.974969 
1113.000000	49.518889 
1112.000000	51.303565 
1111.000000	53.871621 
1110.000000	56.811304 
1109.000000	59.810109 
1108.000000	62.672029 
1107.000000	65.295343 
1106.000000	67.632151 
1105.000000	69.669742 
1104.000000	71.438565 
1103.000000	73.011732 
1102.000000	74.470436 
1101.000000	75.858672 
1100.000000	77.171323 
1099.000000	78.380761 
1098.000000	79.466775 
1097.000000	80.423607 
1096.000000	81.257404 
1095.000000	81.989257 
1094.000000	82.650997 
1093.000000	83.265017 
1092.000000	83.832933 
1091.000000	84.350420 
1090.000000	84.823658 
1089.000000	85.262943 
1088.000000	85.670732 
1087.000000	86.046373 
1086.000000	86.393885 
1085.000000	86.716367 
1084.000000	87.012453 
1083.000000	87.286353 
1082.000000	87.550039 
1081.000000	87.807234 
1080.000000	88.048128 
1079.000000	88.268842 
1078.000000	88.481693 
1077.000000	88.695426 
1076.000000	88.900330 
1075.000000	89.085851 
1074.000000	89.258994 
1073.000000	89.431656 
1072.000000	89.602694 
1071.000000	89.765660 
1070.000000	89.921859 
1069.000000	90.073403 
1068.000000	90.215662 
1067.000000	90.348370 
1066.000000	90.481262 
1065.000000	90.617015 
1064.000000	90.742031 
1063.000000	90.846027 
1062.000000	90.937465 
1061.000000	91.028171 
1060.000000	91.116700 
1059.000000	91.198246 
1058.000000	91.276073 
1057.000000	91.351163 
1056.000000	91.415150 
1055.000000	91.465250 
1054.000000	91.511536 
1053.000000	91.557904 
1052.000000	91.591943 
1051.000000	91.606707 
1050.000000	91.614128 
1049.000000	91.622047 
1048.000000	91.619197 
1047.000000	91.598008 
1046.000000	91.569560 
1045.000000	91.541917 
1044.000000	91.506301 
1043.000000	91.458366 
1042.000000	91.410330 
1041.000000	91.362765 
1040.000000	91.279423 
1039.000000	91.105264 
1038.000000	90.793015 
1037.000000	90.293392 
1036.000000	89.532119 
1035.000000	88.419531 
1034.000000	86.892267 
1033.000000	84.966327 
1032.000000	82.788259 
1031.000000	80.634262 
1030.000000	78.803923 
1029.000000	77.484139 
1028.000000	76.726156 
1027.000000	76.519607 
1026.000000	76.812923 
1025.000000	77.437474 
1024.000000	78.055351 
1023.000000	78.229273 
1022.000000	77.568827 
1021.000000	75.848606 
1020.000000	73.075836 
1019.000000	69.537300 
1018.000000	65.784297 
1017.000000	62.502183 
1016.000000	60.311409 
1015.000000	59.578139 
1014.000000	60.300144 
1013.000000	62.144635 
1012.000000	64.624799 
1011.000000	67.290814 
1010.000000	69.841366 
1009.000000	72.140676 
1008.000000	74.166174 
1007.000000	75.938611 
1006.000000	77.481061 
1005.000000	78.811660 
1004.000000	79.948876 
1003.000000	80.915354 
1002.000000	81.736331 
1001.000000	82.432967 
1000.000000	83.019843 
999.000000	 83.512952 
998.000000	 83.935635 
997.000000	 84.309466 
996.000000	 84.642355 
995.000000	 84.932136 
994.000000	 85.178793 
993.000000	 85.387533 
992.000000	 85.564318 
991.000000	 85.715176 
990.000000	 85.846501 
989.000000	 85.960652 
988.000000	 86.055377 
987.000000	 86.131920 
986.000000	 86.198388 
985.000000	 86.261356 
984.000000	 86.321327 
983.000000	 86.380652 
982.000000	 86.447373 
981.000000	 86.525275 
980.000000	 86.607689 
979.000000	 86.687035 
978.000000	 86.763901 
977.000000	 86.842790 
976.000000	 86.927716 
975.000000	 87.026546 
974.000000	 87.148991 
973.000000	 87.292999 
972.000000	 87.442252 
971.000000	 87.584686 
970.000000	 87.725387 
969.000000	 87.874272 
968.000000	 88.030467 
967.000000	 88.187473 
966.000000	 88.344624 
965.000000	 88.503275 
964.000000	 88.659090 
963.000000	 88.808546 
962.000000	 88.957232 
961.000000	 89.112082 
960.000000	 89.270413 
959.000000	 89.424649 
958.000000	 89.572062 
957.000000	 89.712053 
956.000000	 89.840409 
955.000000	 89.954811 
954.000000	 90.060122 
953.000000	 90.160752 
952.000000	 90.254676 
951.000000	 90.342088 
950.000000	 90.431128 
949.000000	 90.526193 
948.000000	 90.618858 
947.000000	 90.699353 
946.000000	 90.768700 
945.000000	 90.830787 
944.000000	 90.882328 
943.000000	 90.921317 
942.000000	 90.955776 
941.000000	 90.991868 
940.000000	 91.021243 
939.000000	 91.032141 
938.000000	 91.025821 
937.000000	 91.009802 
936.000000	 90.980627 
935.000000	 90.924296 
934.000000	 90.828128 
933.000000	 90.681600 
932.000000	 90.469850 
931.000000	 90.173175 
930.000000	 89.763870 
929.000000	 89.193972 
928.000000	 88.396590 
927.000000	 87.315276 
926.000000	 85.932143 
925.000000	 84.264727 
924.000000	 82.350710 
923.000000	 80.254544 
922.000000	 78.096801 
921.000000	 76.087341 
920.000000	 74.530200 
919.000000	 73.747662 
918.000000	 73.927003 
917.000000	 75.010383 
916.000000	 76.733480 
915.000000	 78.764764 
914.000000	 80.824328 
913.000000	 82.725394 
912.000000	 84.366325 
911.000000	 85.718475 
910.000000	 86.811296 
909.000000	 87.697617 
908.000000	 88.420375 
907.000000	 89.011133 
906.000000	 89.501691 
905.000000	 89.917027 
904.000000	 90.265495 
903.000000	 90.553440 
902.000000	 90.802162 
901.000000	 91.035509 
900.000000	 91.259424 
899.000000	 91.468659 
898.000000	 91.664566 
897.000000	 91.850965 
896.000000	 92.023381 
895.000000	 92.179328 
894.000000	 92.330158 
893.000000	 92.485641 
892.000000	 92.635956 
891.000000	 92.766706 
890.000000	 92.883295 
889.000000	 93.002172 
888.000000	 93.125258 
887.000000	 93.241106 
886.000000	 93.344583 
885.000000	 93.437142 
884.000000	 93.513335 
883.000000	 93.565555 
882.000000	 93.598762 
881.000000	 93.625125 
880.000000	 93.648712 
879.000000	 93.668242 
878.000000	 93.685667 
877.000000	 93.697258 
876.000000	 93.687230 
875.000000	 93.646916 
874.000000	 93.589357 
873.000000	 93.528439 
872.000000	 93.455949 
871.000000	 93.355109 
870.000000	 93.222114 
869.000000	 93.056597 
868.000000	 92.845215 
867.000000	 92.572689 
866.000000	 92.234310 
865.000000	 91.817847 
864.000000	 91.284181 
863.000000	 90.579649 
862.000000	 89.648213 
861.000000	 88.408632 
860.000000	 86.731756 
859.000000	 84.460097 
858.000000	 81.445779 
857.000000	 77.583365 
856.000000	 72.876652 
855.000000	 67.539320 
854.000000	 62.024468 
853.000000	 56.931137 
852.000000	 52.878420 
851.000000	 50.400699 
850.000000	 49.815817 
849.000000	 51.089738 
848.000000	 53.808441 
847.000000	 57.311672 
846.000000	 60.942750 
845.000000	 64.275320 
844.000000	 67.170226 
843.000000	 69.670537 
842.000000	 71.872090 
841.000000	 73.857540 
840.000000	 75.678986 
839.000000	 77.355350 
838.000000	 78.880875 
837.000000	 80.242599 
836.000000	 81.433616 
835.000000	 82.460191 
834.000000	 83.345617 
833.000000	 84.122087 
832.000000	 84.811635 
831.000000	 85.418780 
830.000000	 85.944790 
829.000000	 86.401744 
828.000000	 86.808313 
827.000000	 87.179302 
826.000000	 87.523491 
825.000000	 87.844499 
824.000000	 88.140718 
823.000000	 88.411218 
822.000000	 88.661794 
821.000000	 88.898124 
820.000000	 89.116990 
819.000000	 89.313890 
818.000000	 89.495328 
817.000000	 89.673814 
816.000000	 89.854273 
815.000000	 90.034744 
814.000000	 90.215789 
813.000000	 90.397397 
812.000000	 90.569711 
811.000000	 90.719937 
810.000000	 90.848325 
809.000000	 90.966416 
808.000000	 91.080452 
807.000000	 91.187198 
806.000000	 91.284213 
805.000000	 91.372607 
804.000000	 91.450435 
803.000000	 91.513307 
802.000000	 91.558448 
801.000000	 91.576061 
800.000000	 91.538798 
799.000000	 91.415938 
798.000000	 91.207224 
797.000000	 90.961570 
796.000000	 90.761830 
795.000000	 90.684673 
794.000000	 90.754851 
793.000000	 90.924939 
792.000000	 91.107205 
791.000000	 91.235351 
790.000000	 91.294930 
789.000000	 91.298173 
788.000000	 91.249029 
787.000000	 91.142282 
786.000000	 90.975755 
785.000000	 90.741499 
784.000000	 90.412869 
783.000000	 89.953314 
782.000000	 89.323961 
781.000000	 88.465749 
780.000000	 87.292320 
779.000000	 85.734479 
778.000000	 83.800561 
777.000000	 81.585708 
776.000000	 79.224394 
775.000000	 76.825443 
774.000000	 74.421510 
773.000000	 71.978770 
772.000000	 69.505343 
771.000000	 67.191103 
770.000000	 65.424790 
769.000000	 64.630683 
768.000000	 65.049307 
767.000000	 66.621185 
766.000000	 69.026960 
765.000000	 71.835392 
764.000000	 74.661175 
763.000000	 77.255959 
762.000000	 79.517174 
761.000000	 81.438481 
760.000000	 83.047785 
759.000000	 84.378432 
758.000000	 85.471518 
757.000000	 86.370513 
756.000000	 87.103580 
755.000000	 87.687338 
754.000000	 88.152560 
753.000000	 88.550418 
752.000000	 88.928504 
751.000000	 89.312123 
750.000000	 89.707304 
749.000000	 90.105817 
748.000000	 90.485801 
747.000000	 90.823875 
746.000000	 91.113347 
745.000000	 91.361932 
744.000000	 91.573214 
743.000000	 91.744574 
742.000000	 91.882386 
741.000000	 92.002973 
740.000000	 92.116723 
739.000000	 92.224247 
738.000000	 92.327341 
737.000000	 92.429759 
736.000000	 92.528041 
735.000000	 92.616145 
734.000000	 92.698622 
733.000000	 92.785050 
732.000000	 92.873339 
731.000000	 92.953450 
730.000000	 93.024826 
729.000000	 93.091747 
728.000000	 93.149879 
727.000000	 93.195827 
726.000000	 93.241080 
725.000000	 93.299546 
724.000000	 93.362508 
723.000000	 93.403823 
722.000000	 93.412730 
721.000000	 93.410696 
720.000000	 93.431526 
719.000000	 93.486462 
718.000000	 93.556010 
717.000000	 93.613021 
716.000000	 93.644168 
715.000000	 93.657789 
714.000000	 93.673989 
713.000000	 93.699810 
712.000000	 93.721707 
711.000000	 93.726884 
710.000000	 93.720457 
709.000000	 93.711391 
708.000000	 93.697199 
707.000000	 93.679117 
706.000000	 93.670786 
705.000000	 93.678668 
704.000000	 93.689704 
703.000000	 93.689116 
702.000000	 93.682708 
701.000000	 93.684957 
700.000000	 93.691421 
699.000000	 93.688932 
698.000000	 93.676741 
697.000000	 93.661482 
696.000000	 93.645515 
695.000000	 93.631035 
694.000000	 93.634349 
693.000000	 93.669351 
692.000000	 93.719009 
691.000000	 93.755704 
690.000000	 93.774651 
689.000000	 93.789904 
688.000000	 93.806158 
687.000000	 93.814432 
686.000000	 93.818139 
685.000000	 93.829355 
684.000000	 93.840474 
683.000000	 93.832964 
682.000000	 93.807069 
681.000000	 93.778242 
680.000000	 93.749532 
679.000000	 93.709129 
678.000000	 93.652053 
677.000000	 93.579780 
676.000000	 93.482601 
675.000000	 93.374913 
674.000000	 93.266299 
673.000000	 93.128158 
672.000000	 92.946335 
671.000000	 92.800725 
670.000000	 92.807394 
669.000000	 93.031918 
668.000000	 93.248292 
667.000000	 92.931837 
666.000000	 92.271421 
665.000000	 91.727754 
664.000000	 91.338906 
663.000000	 90.976962 
662.000000	 90.536827 
661.000000	 89.987945 
660.000000	 89.329563 
659.000000	 88.556967 
658.000000	 87.662160 
657.000000	 86.602324 
656.000000	 85.292328 
655.000000	 83.670509 
654.000000	 81.713096 
653.000000	 79.361339 
652.000000	 76.580604 
651.000000	 73.377694 
650.000000	 69.833786 

